timestamp,ax,ay,az,gx,gy,gz,dt
0.0,0.0,0.3,9.81,0.0,0.03,0.0,0.009999999999999787
0.01,0.0039999573334698,0.2999946000162,9.812999800004,0.0001999966666833,0.0299985000124999,0.0002499989583346,0.01
0.02,0.0079996586710357,0.2999784002591987,9.815998400127995,0.0003999733338666,0.0299940001999973,0.0004999916667083,0.01
0.03,0.0119988480331771,0.2999514013121858,9.818994600971918,0.0005999100040499,0.0299865010124696,0.0007499718753164,0.009999999999999998
0.04,0.01599726947314,0.2999136041471203,9.821987204095375,0.0007997866837326,0.0299760031998293,0.0009999333346666,0.010000000000000002
0.05,0.019994667093317,0.2998650101246962,9.824975012497024,0.0009995833854135,0.0299625078118489,0.0012498697957356,0.010000000000000002
0.06,0.0239907850616249,0.299805620994293,9.82795683109334,0.0011992801295888,0.0299460161980561,0.0014997750101247,0.009999999999999995
0.07,0.0279853676278777,0.2997354388939129,9.830931467196637,0.0013988569467506,0.0299265300075983,0.0017496427302168,0.010000000000000009
0.08,0.0319781591401546,0.2996544663501041,9.833897730992138,0.0015982938793834,0.0299040511890785,0.0019994667093317,0.009999999999999995
0.09,0.0359689040611617,0.2995627062778693,9.836854436013876,0.0017975709839602,0.0298785819903598,0.002249240701883,0.009999999999999995
0.1,0.0399573469845863,0.2994601619805612,9.83980039961926,0.0019966683329365,0.0298501249583407,0.0024989584635339,0.010000000000000009
0.11,0.0439432326514426,0.2993468371497635,9.842734443462133,0.0021955660167434,0.0298186829387009,0.0027486137513533,0.009999999999999995
0.12,0.0479263059664085,0.2992227358651578,9.845655393964073,0.0023942441457783,0.0297842590756159,0.0029982003239722,0.009999999999999995
0.13,0.0519063120141513,0.299087862594377,9.848562082783824,0.0025926828523938,0.0297468568114436,0.0032477119417391,0.010000000000000009
0.14,0.0558829960756426,0.2989422221928442,9.851453347284618,0.0027908622928847,0.0297064798863791,0.0034971423668766,0.010000000000000009
0.15,0.0598561036444596,0.2987858199035982,9.854328030999202,0.0029887626494719,0.0296631323380812,0.0037464853636371,0.009999999999999981
0.16,0.0638253804430743,0.2986186613571046,9.857184984092418,0.0031863641322849,0.0296168185012688,0.0039957346984586,0.010000000000000009
0.17,0.0677905724391263,0.2984407525710528,9.860023063821124,0.0033836469813399,0.0295675430072868,0.0042448841401208,0.010000000000000009
0.18,0.0717514258616814,0.29825209995014,9.862841134991264,0.0035805914685164,0.0295153107836436,0.0044939274599005,0.009999999999999981
0.19,0.0757076872174724,0.2980527102858403,9.865638070411949,0.00377717789953,0.0294601270535181,0.0047428584317278,0.010000000000000009
0.2,0.079659103307123,0.2978425907561599,9.868412751346298,0.0039733866159012,0.0294019973352372,0.0049916708323414,0.010000000000000009
0.21,0.0836054212413521,0.2976217489253792,9.871164067958937,0.0041691979969219,0.0293409274417244,0.0052403584414441,0.009999999999999981
0.22,0.0875463884571591,0.2973901927437803,9.8738909197599,0.0043645924616173,0.0292769234799181,0.0054889150418587,0.010000000000000009
0.23,0.0914817527339873,0.2971479305473608,9.876592216044829,0.0045595504707037,0.0292099918501612,0.0057373344196831,0.010000000000000009
0.24,0.0954112622098661,0.2968949710575334,9.879266876331222,0.0047540525285426,0.0291401392455608,0.0059856103644459,0.009999999999999981
0.25,0.0993346653975306,0.2966313233808126,9.881913830790632,0.0049480791850904,0.0290673726513193,0.0062337366692613,0.010000000000000009
0.26,0.1032517112005157,0.2963569970084863,9.88453202067656,0.0051416110378431,0.0289916993440353,0.0064817071309847,0.010000000000000009
0.27,0.1071621489292272,0.2960720018162742,9.887120398747967,0.0053346287337766,0.0289131268909767,0.0067295155503674,0.010000000000000009
0.28,0.1110657283169852,0.2957763480639724,9.889677929688132,0.0055271129712822,0.0288316631493231,0.0069771557322118,0.010000000000000009
0.29,0.1149621995360412,0.2954700463950842,9.89220359051878,0.0057190445020967,0.0287473162653809,0.0072246214855263,0.009999999999999953
0.3,0.1188513132135672,0.2951531078364364,9.894696371009257,0.0059104041332267,0.0286600946737681,0.0074719066236799,0.010000000000000009
0.31,0.1227328204476155,0.294825543797783,9.897155274080596,0.0061011727288688,0.0285700070965714,0.0077190049645571,0.010000000000000009
0.32,0.1266064728230478,0.294487366071394,9.89957931620436,0.0062913312123223,0.0284770625424732,0.0079659103307123,0.010000000000000009
0.33,0.1304720224274343,0.2941385868316311,9.901967527796016,0.0064808605678973,0.0283812703058516,0.008212616549524,0.010000000000000009
0.34,0.1343292218669199,0.2937792186345091,9.90431895360277,0.0066697418428162,0.0282826399658503,0.0084591174533498,0.010000000000000009
0.35,0.1381778242820568,0.2934092744172444,9.906632653085657,0.006857956149109,0.0281811813854213,0.0087054068796797,0.009999999999999953
0.36,0.1420175833636044,0.2930287674977889,9.90890770079572,0.0070454846655017,0.028076904710338,0.0089514786712912,0.010000000000000009
0.37,0.1458482533682919,0.2926377115743505,9.911143186744225,0.0072323086392992,0.027969820368181,0.009197326676402,0.010000000000000009
0.38,0.1496695891345466,0.2922361207249003,9.913338216766585,0.0074184093882596,0.0278599390672953,0.009442944748825,0.010000000000000009
0.39,0.1534813460981838,0.2918240094066654,9.915491912880062,0.0076037683024632,0.0277472717957193,0.009688326748121,0.010000000000000009
0.4,0.1572832803080589,0.2914013924556088,9.917603413634929,0.007788366846173,0.0276318298200865,0.009933466539753,0.010000000000000009
0.41,0.1610751484416802,0.2909682850858952,9.919671874459034,0.0079721865596884,0.0275136246844981,0.0101783579952389,0.009999999999999953
0.42,0.1648567078207814,0.290524702889343,9.921696467995629,0.0081552090611914,0.0273926682093692,0.0104229949923049,0.010000000000000009
0.43,0.168627716426853,0.2900706618348634,9.923676384434293,0.0083374160485842,0.0272689724902465,0.0106673714150391,0.010000000000000009
0.44,0.1723879329166315,0.2896061782678854,9.925610831834843,0.0085187893013199,0.0271425498965989,0.0109114811540434,0.010000000000000009
0.45,0.176137116637545,0.2891312689097671,9.927499036444123,0.0086993106822246,0.0270134130705803,0.0111553181065872,0.010000000000000009
0.46,0.179875027643115,0.2886459508571942,9.929340243005456,0.0088789621393103,0.0268815749257657,0.0113988761767594,0.010000000000000009
0.47,0.183601426708313,0.2881502415815642,9.931133715060769,0.0090577257075813,0.0267470486458598,0.0116421492756208,0.009999999999999953
0.48,0.1873160753448708,0.2876441589283575,9.93287873524515,0.0092355835108296,0.0266098476833785,0.0118851313213567,0.010000000000000009
0.49,0.1910187358165437,0.2871277211164948,9.934574605573795,0.0094125177634231,0.0264699857583036,0.0121278162394286,0.010000000000000009
0.5,0.1947091711543252,0.2866009467376817,9.936220647721186,0.009588510772084,0.0263274768567111,0.0123701979627261,0.010000000000000009
0.51,0.1983871451716135,0.286063854755739,9.937816203292403,0.0097635449376581,0.0261823352293725,0.0126122704317189,0.010000000000000009
0.52,0.2020524224793267,0.2855164645059199,9.9393606340865,0.0099376027568747,0.0260345753903294,0.0128540275946077,0.010000000000000009
0.53,0.2057047685009684,0.2849587956942143,9.940853322351748,0.0101106668240969,0.0258842121154428,0.0130954634074762,0.010000000000000009
0.54,0.2093439494876397,0.2843908683966392,9.942293671032743,0.0102827198330622,0.0257312604409147,0.0133365718344415,0.010000000000000009
0.55,0.2129697325329998,0.2838127030585161,9.943681104009215,0.0104537445786131,0.0255757356617851,0.0135773468478056,0.010000000000000009
0.56,0.2165818855881713,0.2832243204937345,9.945015066326476,0.0106237239584176,0.0254176533304024,0.0138177824282056,0.010000000000000009
0.5700000000000001,0.2201801774765915,0.2826257418840034,9.946295024417385,0.0107926409746793,0.025257029254868,0.0140578725647647,0.010000000000000009
0.58,0.2237643779088079,0.282016988778088,9.947520466315764,0.0109604787358374,0.0250938794974556,0.0142976112552417,0.009999999999999898
0.59,0.2273342574972163,0.2813980830910343,9.948690901861204,0.0111272204582556,0.0249282203730049,0.0145369925061821,0.010000000000000009
0.6,0.2308895877707414,0.2807690471033804,9.949805862895085,0.0112928494679007,0.0247600684472903,0.0147760103330669,0.010000000000000009
0.61,0.2344301411894593,0.2801299034603538,9.95086490344786,0.0114573492020096,0.0245894405353643,0.015014658760463,0.010000000000000009
0.62,0.2379556911591598,0.2794806751710565,9.951867599917431,0.0116207032107461,0.024416353699876,0.0152529318221721,0.010000000000000009
0.63,0.2414660120458481,0.2788213856076371,9.952813551238576,0.0117828951588453,0.0242408252493645,0.0154908235613801,0.010000000000000009
0.64,0.2449608791901857,0.2781520585044483,9.953702379043383,0.0119439088272478,0.0240628727365287,0.0157283280308058,0.010000000000000009
0.65,0.2484400689218683,0.2774727179571938,9.95453372781258,0.0121037281147207,0.0238825139564716,0.01596543929285,0.010000000000000009
0.66,0.2519033585739406,0.2767833884220599,9.95530726501774,0.0122623370394686,0.0236997669449209,0.0162021514197434,0.010000000000000009
0.67,0.255350526497047,0.2760840947148354,9.956022681254298,0.0124197197407311,0.0235146499764254,0.0164384584936951,0.010000000000000009
0.68,0.258781352073617,0.2753748620100182,9.9566796903653,0.0125758604803693,0.0233271815625278,0.0166743546070407,0.010000000000000009
0.6900000000000001,0.2621956157319848,0.274655715839909,9.957278029555855,0.0127307436444393,0.0231373804499131,0.0169098338623895,0.010000000000000009
0.7000000000000001,0.2655930989604417,0.2739266820936925,9.95781745949827,0.0128843537447538,0.0229452656185346,0.0171448903727725,0.010000000000000009
0.71,0.2689735843212206,0.2731877870165045,9.958297764427758,0.0130366754204307,0.0227508562797152,0.0173795182617892,0.009999999999999898
0.72,0.2723368554644125,0.2724390572084882,9.958718752228751,0.0131876934394294,0.0225541718742268,0.0176137116637544,0.010000000000000009
0.73,0.2756826971418122,0.2716805196238359,9.959080254511749,0.0133373927000739,0.0223552320703461,0.0178474647238455,0.010000000000000009
0.74,0.2790108952206942,0.2709122015698185,9.959382126680646,0.0134857582325629,0.0221540567618876,0.0180807715982481,0.010000000000000009
0.75,0.2823212366975177,0.2701341307058031,9.95962424799061,0.0136327752004666,0.0219506660662146,0.0183136264543023,0.010000000000000009
0.76,0.2856135097115579,0.2693463350422567,9.959806521596338,0.013778428902211,0.0217450803222271,0.0185460234706491,0.010000000000000009
0.77,0.2888875035584658,0.2685488429397381,9.959928874590824,0.0139227047725471,0.0215373200883283,0.018777956837375,0.010000000000000009
0.78,0.2921430087037527,0.267741683107877,9.959991258034496,0.0140655883840082,0.0213274061403683,0.019009420756158,0.010000000000000009
0.79,0.2953798167962005,0.2669248846043401,9.959993646974812,0.0142070654483521,0.021115359469567,0.0192404094404122,0.010000000000000009
0.8,0.298597720681196,0.2660984768337852,9.959936040456226,0.0143471218179904,0.0209012012804149,0.0194709171154325,0.010000000000000009
0.81,0.3017965144139892,0.265262489546803,9.959818461520578,0.0144857434874028,0.0206849529885524,0.019700938018539,0.010000000000000009
0.8200000000000001,0.3049759932728728,0.2644169528388453,9.959640957197877,0.0146229165945379,0.0204666362186284,0.0199304663992211,0.010000000000000009
0.8300000000000001,0.3081359537722852,0.2635618971491425,9.959403598487482,0.0147586274221992,0.020246272802138,0.0201594965192813,0.010000000000000009
0.84,0.311276193675833,0.2626973532596069,9.959106480329712,0.0148928623994171,0.0200238847752392,0.0203880226529785,0.009999999999999898
0.85,0.3143965120092343,0.2618233522937254,9.958749721567871,0.0150256081028058,0.0197994943765494,0.0206160390871712,0.010000000000000009
0.86,0.3174967090731807,0.260939925715438,9.958333464900706,0.0151568512579055,0.0195731240449215,0.0208435401214605,0.010000000000000009
0.87,0.3205765864561185,0.2600471053280065,9.957857876825331,0.0152865787405101,0.0193447964172,0.0210705200683324,0.010000000000000009
0.88,0.3236359470469463,0.2591449232728681,9.957323147570644,0.0154147775779793,0.0191145343259574,0.0212969732532999,0.010000000000000009
0.89,0.3266745950476306,0.2582334120284796,9.956729491021209,0.0155414349505364,0.0188823607972109,0.0215228940150454,0.010000000000000009
0.9,0.3296923359857366,0.2573126044091472,9.95607714463173,0.0156665381925496,0.0186482990481199,0.0217482767055615,0.010000000000000009
0.91,0.3326889767268742,0.2563825335638458,9.955366369332069,0.015790074793799,0.0184123724846643,0.0219731156902926,0.010000000000000009
0.92,0.3356643254870589,0.2554432329750254,9.954597449422868,0.0159120324007273,0.0181746046993038,0.0221974053482759,0.010000000000000009
0.93,0.3386181918449856,0.2544947364574058,9.953770692461838,0.0160323988176755,0.0179350194686189,0.0224211400722817,0.010000000000000009
0.94,0.3415503867542157,0.253537078156759,9.95288642914074,0.0161511620081022,0.0176936407509329,0.0226443142689534,0.009999999999999898
0.95,0.3444607225552757,0.2525702925486806,9.951945013153113,0.0162683100957874,0.0174504926839165,0.0228669223589477,0.010000000000000009
0.96,0.3473490129876678,0.251594414437348,9.9509468210528,0.0163838313660199,0.0172055995821737,0.0230889587770741,0.010000000000000009
0.97,0.3502150732017904,0.2506094789542678,9.94989225210333,0.016497714266769,0.0169589859348106,0.0233104179724336,0.010000000000000009
0.98,0.3530587197707678,0.249615521557011,9.948781728118226,0.0166099474098394,0.0167106764029865,0.0235312944085579,0.010000000000000009
0.99,0.3558797707021904,0.2486125780279367,9.947615693292272,0.0167205195720104,0.0164606958174476,0.0237515825635475,0.010000000000000009
1.0,0.3586780454497614,0.2476006844729034,9.946394614023852,0.0168294196961579,0.0162090691760441,0.0239712769302101,0.010000000000000009
1.01,0.3614533649248521,0.24657987731997,9.945118978728395,0.0169366368923603,0.0159558216412306,0.024190372016198,0.010000000000000009
1.02,0.3642055515079634,0.2455501933180837,9.943789297643008,0.0170421604389872,0.0157009785375494,0.0244088623441453,0.010000000000000009
1.03,0.3669344290600935,0.2445116695357573,9.942406102622396,0.017145979783772,0.0154445653490986,0.0246267424518054,0.010000000000000009
1.04,0.3696398229340104,0.2434643433597348,9.940969946926128,0.0172480845448667,0.0151866077169833,0.0248440068921868,0.010000000000000009
1.05,0.3723215599854297,0.2424082524936455,9.939481404997332,0.0173484645118803,0.0149271314367518,0.0250606502336898,0.010000000000000009
1.06,0.3749794685840953,0.2413434349566465,9.937941072232933,0.0174471096468997,0.0146661624558158,0.0252766670602423,0.010000000000000009
1.07,0.3776133786247643,0.2402699290820541,9.936349564745498,0.0175440100854936,0.014403726870856,0.0254920519714347,0.010000000000000009
1.08,0.3802231215380932,0.2391877735159639,9.934707519116802,0.0176391561376989,0.0141398509252122,0.0257067995826556,0.010000000000000009
1.09,0.382808530301426,0.2380970072158593,9.933015592143208,0.0177325382889897,0.013874561006259,0.0259209045252258,0.010000000000000009
1.1,0.3853694394494847,0.2369976694492095,9.931274460572938,0.0178241472012287,0.0136078836427673,0.0261343614465329,0.010000000000000009
1.11,0.3879056850849577,0.2358897997920552,9.929484820835414,0.0179139737136009,0.0133398455022512,0.026347165010165,0.010000000000000009
1.12,0.3904171048889902,0.2347734381275844,9.927647388762663,0.0180020088435301,0.0130704733883013,0.0265593098960441,0.010000000000000009
1.13,0.3929035381315718,0.2336486246446965,9.925762899303018,0.0180882437875765,0.0127997942379047,0.0267707908005591,0.009999999999999787
1.14,0.3953648256818238,0.2325153998365555,9.923832106227138,0.0181726699223176,0.0125278351187507,0.0269816024366984,0.010000000000000009
1.15,0.397800810018183,0.2313738044991319,9.921855781826508,0.0182552788052104,0.0122546232265247,0.0271917395341821,0.010000000000000009
1.16,0.4002113352384835,0.2302238797297348,9.91983471660454,0.0183360621754353,0.0119801858821881,0.0274011968395936,0.010000000000000009
1.17,0.4025962470699339,0.2290656669255315,9.91776971896037,0.0184150119547227,0.0117045505292469,0.0276099691165113,0.010000000000000009
1.18,0.404955392878991,0.227899207782058,9.915661614865527,0.0184921202481604,0.0114277447310064,0.0278180511456391,0.010000000000000009
1.19,0.4072886216811284,0.2267245442917174,9.913511247533542,0.0185673793449833,0.0111497961678159,0.0280254377249372,0.010000000000000009
1.2,0.4095957841504991,0.2255417187422685,9.911319477082673,0.0186407817193445,0.0108707326343002,0.0282321236697517,0.010000000000000009
1.21,0.4118767326294925,0.2243507737153033,9.90908718019188,0.0187123200310677,0.0105905820365799,0.028438103812945,0.010000000000000009
1.22,0.4141313211381847,0.2231517520847143,9.906815249750156,0.0187819871263813,0.0103093723894814,0.028643373005024,0.010000000000000009
1.23,0.4163594053836805,0.2219446970151506,9.904504594499384,0.0188497760386339,0.010027131813735,0.0288479261142698,0.010000000000000009
1.24,0.4185608427693487,0.2207296519604643,9.902156138670858,0.0189156799889907,0.0097438885331632,0.0290517580268652,0.010000000000000009
1.25,0.4207354924039482,0.2195066606621462,9.899770821615594,0.0189796923871117,0.009459670871858,0.0292548636470231,0.010000000000000009
1.26,0.4228832151106446,0.218275767147751,9.897349597428612,0.0190418068318103,0.0091745072513486,0.0294572378971134,0.010000000000000009
1.27,0.4250038734359178,0.2170370157293122,9.894893434567306,0.0191020171116938,0.0088884261877595,0.0296588757177906,0.010000000000000009
1.28,0.4270973316583587,0.2157904510017471,9.892403315464067,0.0191603172057845,0.0086014562889586,0.0298597720681196,0.010000000000000009
1.29,0.4291634557973557,0.2145361178412513,9.889880236133344,0.0192167012841214,0.0083136262516967,0.030059921925702,0.010000000000000009
1.3,0.4312021136216692,0.2132740614036831,9.88732520577322,0.0192711637083438,0.0080249648587376,0.0302593202868019,0.010000000000000009
1.31,0.4332131746578942,0.212004327122938,9.884739246361775,0.0193236990322546,0.00773550097598,0.0304579621664707,0.010000000000000009
1.32,0.4351965101988109,0.2107269607093128,9.882123392248298,0.0193743020023653,0.0074452635495711,0.0306558425986716,0.010000000000000009
1.33,0.4371519933116217,0.2094420081478606,9.879478689739551,0.0194229675584208,0.0071542816030116,0.0308529566364043,0.010000000000000009
1.34,0.4390794988460747,0.2081495156967348,9.87680619668128,0.0194696908339063,0.0068625842342537,0.0310492993518279,0.010000000000000009
1.35,0.4409789034424737,0.206849529885524,9.874106982035077,0.0195144671565331,0.0065702006127912,0.0312448658363849,0.010000000000000009
1.36,0.4428500855395729,0.2055420975135771,9.871382125450802,0.0195572920487063,0.0062771599767425,0.0314396512009234,0.010000000000000009
1.37,0.4446929253823568,0.2042272656483182,9.86863271683477,0.0195981612279722,0.0059834916299271,0.0316336505758193,0.010000000000000009
1.38,0.4465073050297043,0.2029050816235525,9.865859855913758,0.0196370706074471,0.005689224938935,0.0318268591110984,0.009999999999999787
1.39,0.4482931083619375,0.201575593037762,9.863064651795172,0.0196740162962255,0.0053943893301899,0.0320192719765573,0.010000000000000009
1.4,0.4500502210882525,0.2002388477523924,9.860248222523389,0.0197089945997692,0.0050990142870072,0.0322108843618845,0.010000000000000009
1.41,0.4517785307540347,0.1988948938901294,9.85741169463256,0.019742002020277,0.0048031293466449,0.0324016914767803,0.010000000000000009
1.42,0.4534779267480553,0.197543779833167,9.854556202696026,0.0197730352570343,0.0045067640973505,0.0325916885510768,0.010000000000000009
1.43,0.455148300309551,0.1961855542214653,9.851682888872489,0.0198020912067435,0.0042099481754021,0.032780870834857,0.010000000000000009
1.44,0.4567895445351838,0.1948202659509997,9.848792902449167,0.0198291669638337,0.0039127112621443,0.0329692335985736,0.010000000000000009
1.45,0.4584015543858834,0.1934479641720003,9.845887399382098,0.0198542598207517,0.0036150830810209,0.0331567721331674,0.010000000000000009
1.46,0.4599842266935698,0.1920686982871831,9.842967541833769,0.0198773672682328,0.003317093394602,0.0333434817501848,0.010000000000000009
1.47,0.4615374601677554,0.190682517949971,9.840034497708269,0.0198984869955516,0.0030187720016079,0.0335293577818951,0.010000000000000009
1.48,0.4630611554020281,0.1892894730627064,9.837089440184135,0.0199176168907528,0.0027201487339292,0.0337143955814072,0.010000000000000009
1.49,0.4645552148804129,0.1878896137748548,9.834133547245118,0.0199347550408628,0.002421253453644,0.0338985905227857,0.010000000000000009
1.5,0.4660195429836132,0.1864829904811993,9.83116800120898,0.019949899732081,0.002122116050031,0.0340819380011667,0.010000000000000009
1.51,0.4674540459951302,0.1850696538200266,9.828193988254595,0.0199630494499509,0.0018227664365815,0.0342644334328727,0.010000000000000009
1.52,0.4688586321072608,0.1836496546713039,9.82521269794749,0.0199742028795116,0.0015232345480073,0.0344460722555275,0.010000000000000009
1.53,0.4702332114269733,0.1822230441548472,9.82222532276404,0.0199833589054295,0.0012235503372477,0.03462684992817,0.010000000000000009
1.54,0.4715776959816604,0.180789873628481,9.819233057614488,0.0199905166121095,0.0009237437724739,0.0348067619313678,0.010000000000000009
1.55,0.4728919997247695,0.1793501946861894,9.816237099364994,0.0199956752837871,0.0006238448340927,0.0349858037673301,0.010000000000000009
1.56,0.4741760385413097,0.177904059156259,9.813238646358917,0.0199988344045993,0.000323883511748,0.0351639709600205,0.010000000000000009
1.57,0.475429730253235,0.1764515190994125,9.810238897937474,0.0199999936586366,2.38898013219979e-05,0.0353412590552683,0.010000000000000009
1.58,0.4766529946247037,0.1749926268069352,9.807239053960044,0.0199991529299748,-0.0002761062980642,0.0355176636208803,0.010000000000000009
1.59,0.4778457533672137,0.173527434798792,9.804240314324216,0.0199963123026858,-0.0005760747870507,0.0356931802467518,0.010000000000000009
1.6,0.4790079301446125,0.172055995821737,9.801243878485865,0.0199914720608301,-0.0008759856690386,0.0358678045449761,0.010000000000000009
1.61,0.4801394505779831,0.1705783628474144,9.79825094497937,0.0199846326884278,-0.0011758089531896,0.0360415321499549,0.010000000000000009
1.62,0.4812402422504039,0.1690945890704518,9.795262710938234,0.0199757948694104,-0.0014755146574251,0.0362143587185071,0.010000000000000009
1.63,0.4823102347115837,0.1676047279065448,9.792280371616227,0.0199649594875526,-0.0017750728114244,0.0363862799299775,0.009999999999999787
1.64,0.4833493594823702,0.1661088329905345,9.789305119909317,0.0199521276263834,-0.0020744534596218,0.0365572914863447,0.010000000000000009
1.65,0.4843575500591326,0.1646069581744762,9.786338145878512,0.0199373005690783,-0.002373626664202,0.0367273891123289,0.010000000000000009
1.66,0.4853347419180184,0.1630991575257012,9.783380636273872,0.0199204797983307,-0.0026725625080937,0.0368965685554981,0.010000000000000009
1.67,0.4862808725190819,0.16158548532487,9.7804337740598,0.0199016669962036,-0.0029712310979618,0.0370648255863751,0.010000000000000009
1.68,0.4871958813102877,0.1600659960640183,9.777498737941894,0.0198808640439615,-0.0032696025671961,0.0372321559985429,0.010000000000000009
1.69,0.4880797097313856,0.1585407444445954,9.774576701895466,0.0198580730218823,-0.0035676470788983,0.0373985556087499,0.010000000000000009
1.7,0.4889323012176581,0.1570097853754948,9.771668834695976,0.0198332962090493,-0.0038653348288657,0.0375640202570146,0.010000000000000009
1.71,0.4897536012035412,0.1554731739710778,9.768776299451533,0.0198065360831231,-0.0041626360485713,0.0377285458067293,0.010000000000000009
1.72,0.4905435571261162,0.1539309655491889,9.765900253137666,0.019777795320094,-0.0044595210081409,0.0378921281447638,0.010000000000000009
1.73,0.4913021184284736,0.1523832156291647,9.763041846134556,0.0197470767940143,-0.0047559600193259,0.0380547631815683,0.010000000000000009
1.74,0.492029236562949,0.1508299799298353,9.76020222176689,0.019714383576711,-0.0050519234384723,0.0382164468512752,0.010000000000000009
1.75,0.4927248649942301,0.1492713143675181,9.757382515846558,0.0196797189374787,-0.0053473816694847,0.0383771751118013,0.010000000000000009
1.76,0.4933889592023345,0.1477072750540048,9.754583856218328,0.0196430863427523,-0.0056423051667864,0.0385369439449484,0.010000000000000009
1.77,0.4940214766854598,0.146137918294542,9.75180736230874,0.0196044894557609,-0.0059366644382732,0.038695749356504,0.010000000000000009
1.78,0.4946223769627028,0.1445633005858035,9.749054144678338,0.0195639321361608,-0.0062304300482635,0.0388535873763411,0.010000000000000009
1.79,0.495191621576651,0.1429834786138566,9.746325304577462,0.0195214184396504,-0.0065235726204409,0.0390104540585175,0.010000000000000009
1.8,0.4957291740958432,0.141398509252122,9.743621933505771,0.0194769526175639,-0.0068160628407926,0.0391663454813741,0.010000000000000009
1.81,0.4962350001171019,0.1398084495593252,9.74094511277565,0.0194305391164463,-0.0071078714605402,0.0393212577476337,0.010000000000000009
1.82,0.4967090672677343,0.1382133567774436,9.7382959130797,0.0193821825776091,-0.007398969299065,0.0394751869844975,0.010000000000000009
1.83,0.4971513452076045,0.136613288329645,9.735675394062474,0.0193318878366659,-0.0076893272468256,0.0396281293437427,0.010000000000000009
1.84,0.4975618056310754,0.1350083018182208,9.733084603896645,0.0192796599230489,-0.0079789162682694,0.0397800810018183,0.010000000000000009
1.85,0.49794042226882,0.133398455022512,9.730524578863726,0.0192255040595059,-0.0082677074047353,0.0399310381599407,0.010000000000000009
1.86,0.4982871708895027,0.1317838058968294,9.727996342939608,0.0191694256615782,-0.0085556717773506,0.0400809970441888,0.010000000000000009
1.87,0.4986020293013301,0.1301644125683672,9.725500907384944,0.0191114303370588,-0.0088427805899178,0.0402299539055984,0.010000000000000009
1.88,0.4988849773534714,0.1285403333351102,9.723039270340688,0.0190515238854319,-0.009129005131795,0.0403779050202557,0.009999999999999787
1.89,0.4991359969373478,0.1269116266637355,9.720612416428835,0.0189897122972926,-0.0094143167807664,0.0405248466893904,0.010000000000000009
1.9,0.4993550719877915,0.1252783511875073,9.718221316358592,0.0189260017537482,-0.0096986870059051,0.0406707752394686,0.010000000000000009
1.91,0.4995421884840742,0.1236405657041665,9.715866926538109,0.0188603986258002,-0.0099820873704253,0.0408156870222841,0.010000000000000009
1.92,0.4996973344508039,0.1219983291738135,9.713550188691912,0.0187929094737064,-0.0102644895345269,0.0409595784150499,0.010000000000000009
1.93,0.4998204999586919,0.120351700716786,9.711272029484263,0.0187235410463261,-0.0105458652582287,0.0411024458204885,0.010000000000000009
1.94,0.4999116771251874,0.1187007396115307,9.709033360148466,0.018652300280444,-0.010826186404193,0.0412442856669225,0.010000000000000009
1.95,0.4999708601149831,0.117045505292469,9.706835076122404,0.0185791943000773,-0.0111054249405386,0.0413850944083628,0.010000000000000009
1.96,0.4999980451403878,0.1153860573478577,9.70467805669038,0.0185042304157633,-0.0113835529436446,0.0415248685245985,0.010000000000000009
1.97,0.4999932304615692,0.1137224555176436,9.702563164631403,0.0184274161238279,-0.0116605426009425,0.0416636045212838,0.010000000000000009
1.98,0.499956416386665,0.1120547596913128,9.700491245874106,0.0183487591056361,-0.0119363662136974,0.041801298930026,0.010000000000000009
1.99,0.4998876052717635,0.1103830299057351,9.69846312915836,0.0182682672268245,-0.0122109961997779,0.0419379483084721,0.010000000000000009
2.0,0.4997868015207525,0.108707326343002,9.69647962570381,0.0181859485365136,-0.0124844050964142,0.0420735492403948,0.010000000000000009
2.01,0.4996540115850378,0.107027709328261,9.694541528885397,0.018101811266504,-0.0127565655629445,0.0422080983357778,0.009999999999999787
2.02,0.4994892439631298,0.1053442393275432,9.692649613916002,0.0180158638304525,-0.013027450383549,0.0423415922309007,0.010000000000000231
2.03,0.4992925092001001,0.1036569769455867,9.690804637536392,0.0179281148230311,-0.0132970324699712,0.0424740275884232,0.009999999999999787
2.04,0.4990638198869065,0.1019659829236552,9.689007337712514,0.0178385730190675,-0.0135652848642273,0.0426054010974681,0.010000000000000231
2.05,0.4988031906595868,0.1002713181373508,9.68725843334034,0.0177472473726675,-0.0138321807413013,0.0427357094737046,0.009999999999999787
2.06,0.4985106381983227,0.0985730435944226,9.685558623958295,0.0176541470163194,-0.014097693411828,0.0428649494594301,0.010000000000000231
2.07,0.4981861812263719,0.096871220432571,9.683908589467473,0.0175592812599815,-0.0143617963247615,0.0429931178236517,0.009999999999999787
2.08,0.4978298405088697,0.0951659099172458,9.682308989859663,0.0174626595901503,-0.0146244630700307,0.0431202113621669,0.010000000000000231
2.09,0.4974416388515006,0.0934571734394415,9.680760464953387,0.0173642916689122,-0.0148856673811799,0.0432462268976439,0.009999999999999787
2.1,0.497021601099038,0.0917450725134868,9.679263634137962,0.0172641873329774,-0.0151453831379957,0.0433711612797008,0.010000000000000231
2.11,0.4965697541337547,0.0900296687748301,9.677819096125752,0.0171623565926961,-0.0154035843691187,0.0434950113849847,0.009999999999999787
2.12,0.4960861268737023,0.0883110239778205,9.676427428712705,0.0170588096310575,-0.0156602452546412,0.0436177741172493,0.010000000000000231
2.13,0.4955707502708604,0.0865891999934855,9.675089188547224,0.0169535568026713,-0.0159153401286883,0.0437394464074327,0.009999999999999787
2.14,0.4950236573091556,0.0848642588073022,9.67380491090754,0.0168466086327329,-0.0161688434819853,0.043860025213734,0.010000000000000231
2.15,0.4944448830023507,0.0831362625169673,9.672575109487582,0.0167379758159699,-0.0164207299644081,0.0439795075216894,0.009999999999999787
2.16,0.4938344643918038,0.0814052733301604,9.671400276191523,0.0166276692155736,-0.0166709743875183,0.0440978903442473,0.010000000000000231
2.17,0.4931924405440977,0.0796713535623054,9.670280880937014,0.0165156998621121,-0.0169195517270823,0.0442151707218434,0.009999999999999787
2.18,0.4925188525485394,0.0779345656343266,9.669217371467234,0.0164020789524274,-0.0171664371255731,0.0443313457224743,0.010000000000000231
2.19,0.4918137435145308,0.076194972070402,9.668210173171792,0.0162868178485159,-0.0174116058946566,0.0444464124417711,0.009999999999999787
2.2,0.4910771585688092,0.0744526354957118,9.667259688916571,0.0161699280763918,-0.0176550335176603,0.0445603680030717,0.010000000000000231
2.21,0.4903091448525599,0.0727076186341848,9.66636629888261,0.0160514213249349,-0.0178966956520247,0.0446732095574931,0.009999999999999787
2.22,0.4895097515183986,0.0709599843062392,9.665530360414005,0.0159313094447217,-0.0181365681317378,0.0447849342840023,0.010000000000000231
2.23,0.4886790297272257,0.0692097954265223,9.664752207874994,0.01580960444684,-0.0183746269697515,0.044895539389487,0.009999999999999787
2.24,0.4878170326449523,0.0674571150016447,9.664032152516224,0.0156863185016883,-0.0186108483603803,0.0450050221088252,0.010000000000000231
2.25,0.4869238154390976,0.0657020061279125,9.663370482350237,0.0155614639377584,-0.0188452086816821,0.0451133797049547,0.009999999999999787
2.26,0.4859994352752577,0.0639445319890553,9.662767462036271,0.0154350532404025,-0.01907768449782,0.0452206094689413,0.009999999999999787
2.27,0.4850439513134476,0.0621847558539527,9.662223332774422,0.015307099050585,-0.0193082525614062,0.0453267087200463,0.010000000000000231
2.28,0.4840574247043148,0.0604227410743551,9.661738312209131,0.0151776141636184,-0.0195368898158263,0.0454316748057941,0.009999999999999787
2.29,0.4830399185852255,0.0586585510826047,9.66131259434216,0.0150466115278834,-0.0197635733975456,0.045535505102038,0.010000000000000231
2.3000000000000003,0.481991498076224,0.0568922493893502,9.66094634945498,0.0149141042435344,-0.0199882806383947,0.045638197013026,0.010000000000000231
2.31,0.4809122302758651,0.0551238995812623,9.660639724040664,0.0147801055611894,-0.0202109890678368,0.0457397479714657,0.009999999999999787
2.32,0.4798021842569195,0.0533535653187427,9.660392840745288,0.014644628880605,-0.0204316764152145,0.0458401554385883,0.009999999999999787
2.33,0.4786614310619537,0.0515813103336338,9.660205798318875,0.0145076877493363,-0.0206503206119771,0.0459394169042125,0.010000000000000231
2.34,0.4774900436987826,0.0498071984269236,9.660078671575908,0.0143692958613825,-0.020866899793887,0.0460375298868067,0.009999999999999787
2.35,0.4762880971357977,0.0480312934664493,9.660011511365385,0.0142294670558168,-0.0210813923032066,0.0461344919335516,0.010000000000000231
2.36,0.4750556682971688,0.0462536593845976,9.660004344550496,0.0140882153154035,-0.0212937766908636,0.046230300620401,0.009999999999999787
2.37,0.4737928360579208,0.0444743601760034,9.660057173997872,0.0139455547651987,-0.0215040317185962,0.0463249535521427,0.010000000000000231
2.38,0.4724996812388861,0.0426934598952461,9.66016997857644,0.0138014996711387,-0.021712136361077,0.0464184483624583,0.009999999999999787
2.39,0.4711762866015315,0.0409110226545434,9.660342713165866,0.0136560644386127,-0.0219180698080151,0.0465107827139825,0.010000000000000231
2.4,0.4698227368426624,0.0391271126214436,9.660575308674623,0.013509263611023,-0.0221218114662373,0.0466019542983613,0.009999999999999787
2.41,0.4684391185890011,0.0373417940165151,9.66086767206761,0.0133611118683298,-0.0223233409617477,0.0466919608363098,0.010000000000000231
2.42,0.4670255203916438,0.035555131111035,9.661219686403363,0.013211624025584,-0.0225226381417647,0.0467808000776693,0.009999999999999787
2.43,0.4655820327203923,0.0337671882246748,9.661631210880843,0.0130608150314452,-0.0227196830767363,0.0468684698014633,0.010000000000000231
2.44,0.4641087479579652,0.0319780297231853,9.66210208089575,0.0129086999666874,-0.0229144560623332,0.0469549678159533,0.009999999999999787
2.45,0.4626057603940841,0.0301877200160795,9.66263210810635,0.01275529404269,-0.0231069376214192,0.0470402919586936,0.010000000000000231
2.46,0.4610731662194403,0.0283963235543133,9.66322108050883,0.0126006125999178,-0.0232971085059987,0.0471244400965848,0.009999999999999787
2.47,0.4595110635195376,0.026603904827966,9.663868762522078,0.012444671106386,-0.0234849496991419,0.0472074101259281,0.010000000000000231
2.48,0.4579195522684159,0.0248105283639181,9.664574895081929,0.0122874851561142,-0.0236704424168859,0.0472891999724769,0.009999999999999787
2.49,0.4562987343222518,0.0230162587235286,9.665339195744773,0.0121290704675662,-0.0238535681101135,0.0473698075914894,0.010000000000000231
2.5,0.4546487134128408,0.0212211605003108,9.66616135880053,0.0119694428820791,-0.024034308466408,0.0474492309677793,0.009999999999999787
2.51,0.4529695951409577,0.0194252983176069,9.667041055394945,0.0118086183622782,-0.0242126454118843,0.0475274681157663,0.009999999999999787
2.52,0.451261486969599,0.0176287368262615,9.66797793366111,0.0116466129904816,-0.0243885611129967,0.0476045170795257,0.010000000000000231
2.53,0.4495244982171044,0.0158315407022943,9.668971618860208,0.0114834429670914,-0.0245620379783214,0.0476803759328376,0.009999999999999787
2.54,0.4477587400501614,0.0140337746445715,9.670021713531408,0.011319124608974,-0.0247330586603166,0.0477550427792346,0.010000000000000231
2.5500000000000003,0.4459643254766897,0.0122355033724773,9.67112779765084,0.0111536743478283,-0.0249016060570566,0.0478285157520493,0.010000000000000231
2.56,0.4441413693386098,0.010436791623583,9.67228942879961,0.0109871087285425,-0.0250676633139422,0.0479007930144612,0.009999999999999787
2.57,0.4422899883044921,0.0086377041513175,9.673506142340743,0.0108194444075397,-0.025231213825386,0.0479718727595426,0.009999999999999787
2.58,0.4404103008620909,0.0068383057226353,9.674777451605047,0.0106506981511124,-0.0253922412364732,0.0480417532103036,0.010000000000000231
2.59,0.4385024273107609,0.0050386611156858,9.676102848085764,0.0104808868337455,-0.0255507294445969,0.0481104326197365,0.009999999999999787
2.6,0.4365664897537582,0.0032388351174802,9.677481801641978,0.0103100274364292,-0.0257066626010684,0.0481779092708596,0.010000000000000231
2.61,0.4346026120904256,0.0014388925215602,9.678913760710648,0.010138137044961,-0.0258600251127019,0.0482441814767602,0.009999999999999787
2.62,0.4326109200082633,-0.0003611018743351,9.68039815252724,0.0099652328482367,-0.026010801643374,0.0483092475806367,0.010000000000000231
2.63,0.4305915409748847,-0.002161083270602,9.681934383354818,0.0097913321365319,-0.0261589771155574,0.0483731059558397,0.009999999999999787
2.64,0.4285446042298586,-0.0039609868681046,9.683521838721536,0.0096164522997729,-0.0263045367118284,0.0484357550059132,0.010000000000000231
2.65,0.4264702407764381,-0.0057607478705077,9.685159883666415,0.0094406108257976,-0.0264474658763485,0.0484971931646343,0.009999999999999787
2.66,0.424368583373176,-0.0075603014866097,9.686847862993313,0.0092638252986069,-0.0265877503163205,0.0485574188960522,0.010000000000000231
2.67,0.4222397665254289,-0.0093595829326745,9.688585101533008,0.0090861133966061,-0.0267253760034172,0.0486164306945267,0.009999999999999787
2.68,0.4200839264767484,-0.0111585274347648,9.690370904413244,0.0089074928908374,-0.0268603291751847,0.0486742270847659,0.010000000000000231
2.69,0.4179012012001618,-0.0129570702310724,9.692204557336684,0.0087279816432025,-0.0269925963364182,0.0487308066218632,0.009999999999999787
2.7,0.4156917303893415,-0.0147551465742511,9.694085326866604,0.0085475976046765,-0.0271221642605118,0.0487861678913329,0.010000000000000231
2.71,0.4134556554496655,-0.0165526917337466,9.696012460720269,0.0083663588135131,-0.0272490199907811,0.0488403095091463,0.009999999999999787
2.72,0.4111931194891667,-0.0183496409981275,9.69798518806983,0.0081842833934403,-0.0273731508417587,0.0488932301217658,0.010000000000000231
2.73,0.4089042673093742,-0.0201459296774141,9.700002719850652,0.0080013895518483,-0.027494544400463,0.0489449284061787,0.009999999999999787
2.74,0.4065892453960462,-0.0219414931054082,9.702064249076924,0.007817695577969,-0.0276131885276394,0.0489954030699307,0.010000000000000231
2.75,0.404248201909795,-0.0237362666420201,9.704168951164442,0.0076332198410466,-0.0277290713589739,0.0490446528511577,0.009999999999999787
2.76,0.4018812866766047,-0.0255301856755965,9.706315984260431,0.0074479807885011,-0.0278421813062799,0.0490926765186179,0.009999999999999787
2.77,0.3994886511782423,-0.0273231856252457,9.708504489580282,0.0072619969440833,-0.0279525070586571,0.0491394728717221,0.010000000000000231
2.78,0.397070448542563,-0.0291152019431634,9.710733591751046,0.0070752869060228,-0.0280600375836221,0.0491850407405638,0.009999999999999787
2.79,0.39462683353371,-0.0309061701169555,9.713002399161573,0.0068878693451678,-0.028164762128212,0.0492293789859487,0.010000000000000231
2.8000000000000003,0.3921579625422099,-0.0326960256719614,9.715310004319152,0.006699763003118,-0.0282666702200597,0.049272486499423,0.010000000000000231
2.81,0.3896639935749634,-0.0344847041735741,9.717655484212488,0.0065109866903512,-0.0283657516684408,0.049314362203301,0.009999999999999787
2.82,0.3871450862451333,-0.0362721412295609,9.720037900680897,0.006321559284341,-0.0284619965652932,0.0493550050506925,0.009999999999999787
2.83,0.3846014017619284,-0.0380582724923809,9.722456300789547,0.0061314997276704,-0.0285553952862072,0.0493944140255282,0.010000000000000231
2.84,0.3820331029202881,-0.0398430336615014,9.724909717210656,0.0059408270261366,-0.0286459384913887,0.0494325881425859,0.009999999999999787
2.85,0.3794403540904609,-0.0416263604857132,9.727397168610356,0.0057495602468508,-0.0287336171265927,0.0494695264475147,0.010000000000000231
2.86,0.3768233212074875,-0.0434081887654432,9.729917660041254,0.0055577185163317,-0.0288184224240285,0.0495052280168588,0.009999999999999787
2.87,0.3741821717605788,-0.0451884543550656,9.732470183340386,0.0053653210185923,-0.0289003459032373,0.0495396919580809,0.010000000000000231
2.88,0.3715170747823981,-0.0469670931652116,9.735053717532464,0.0051723869932222,-0.0289793793719392,0.0495729174095843,0.009999999999999787
2.89,0.3688282008382421,-0.0487440411650761,9.73766722923826,0.004978935733463,-0.0290555149268533,0.0496049035407343,0.010000000000000231
2.9,0.3661157220151257,-0.0505192343847231,9.740309673087935,0.0047849865842796,-0.0291287449544877,0.0496356495518794,0.009999999999999787
2.91,0.3633798119107673,-0.0522926089173882,9.742979992139189,0.0045905589404252,-0.0291990621319004,0.0496651546743709,0.010000000000000231
2.92,0.3606206456224803,-0.0540641009217799,9.74567711829999,0.0043956722445023,-0.0292664594274324,0.0496934181705822,0.009999999999999787
2.93,0.3578383997359647,-0.0558336466243773,9.74839997275585,0.0042003459850179,-0.0293309301014103,0.0497204393339275,0.010000000000000231
2.94,0.3550332523140083,-0.0576011823217263,9.751147466401282,0.0040045996944354,-0.0293924677068205,0.049746217488879,0.009999999999999787
2.95,0.3522053828850879,-0.0593666443827327,9.753918500275464,0.0038084529472205,-0.0294510660899536,0.0497707519909843,0.010000000000000231
2.96,0.3493549724318824,-0.0611299692509528,9.756711966001792,0.0036119253578846,-0.0295067193910201,0.049794042226882,0.009999999999999787
2.97,0.3464822033796871,-0.0628910934468819,9.759526746231224,0.0034150365790229,-0.0295594220447365,0.0498160876143174,0.010000000000000231
2.98,0.3435872595847415,-0.0646499535702392,9.762361715089195,0.0032178062993491,-0.0296091687808811,0.0498368876021571,0.009999999999999787
2.99,0.3406703263224597,-0.0664064863022501,9.765215738625962,0.0030202542417268,-0.0296559546248218,0.0498564416704024,0.010000000000000231
3.0,0.3377315902755753,-0.068160628407926,9.76808767527016,0.0028224001611973,-0.0296997748980133,0.0498747493302027,0.009999999999999787
3.01,0.3347712395221921,-0.0699123167383407,9.77097637628543,0.0026242638430036,-0.0297406252184647,0.0498918101238673,0.009999999999999787
3.02,0.3317894635237478,-0.0716614882329031,9.773880686229877,0.0024258651006125,-0.0297785015011781,0.0499076236248774,0.010000000000000231
3.03,0.3287864531128885,-0.0734080799216288,9.776799443418248,0.0022272237737329,-0.0298133999585566,0.0499221894378962,0.009999999999999787
3.04,0.3257624004812556,-0.0751520289274052,9.779731480386582,0.002028359726332,-0.0298453171007837,0.0499355071987791,0.010000000000000231
3.0500000000000003,0.3227174991671852,-0.0768932724682568,9.782675624359186,0.0018292928446487,-0.0298742497361718,0.0499475765745829,0.010000000000000231
3.06,0.3196519440433221,-0.0786317478596038,9.785630697717728,0.0016300430352053,-0.0299001949714813,0.0499583972635738,0.009999999999999787
3.0700000000000003,0.3165659313041478,-0.0803673925165203,9.788595518472262,0.0014306302228168,-0.0299231502122105,0.049967968995235,0.010000000000000231
3.08,0.3134596584534244,-0.0821001439559856,9.79156890073402,0.0012310743485982,-0.0299431131628543,0.0499762915302739,0.009999999999999787
3.09,0.3103333242915541,-0.0838299397991355,9.794549655189735,0.0010313953679706,-0.0299600818271344,0.0499833646606275,0.009999999999999787
3.1,0.3071871289028557,-0.0855567177735062,9.797536589577376,0.0008316132486658,-0.0299740545081983,0.0499891882094678,0.010000000000000231
3.11,0.3040212736427608,-0.0872804157152771,9.800528509163009,0.000631747968729,-0.0299850298087898,0.0499937620312065,0.009999999999999787
3.12,0.3008359611249248,-0.0890009715715086,9.80352421721869,0.0004318195145219,-0.0299930066313878,0.0499970860114983,0.010000000000000231
3.13,0.2976313952082623,-0.0907183234023756,9.806522515501143,0.0002318478787231,-0.0299979841783168,0.0499991600672438,0.009999999999999787
3.14,0.2944077809838974,-0.0924324093833977,9.80952220473103,3.1853058329736564e-05,-0.0299999619518261,0.0499999841465917,0.010000000000000231
3.15,0.2911653247620409,-0.0941431678076646,9.812522085072652,-0.0001681449473429,-0.0299989397541402,0.0499995582289401,0.009999999999999787
3.16,0.2879042340587835,-0.095850537088058,9.815520956613874,-0.000368126138661,-0.0299949176874779,0.049997882324937,0.010000000000000231
3.17,0.2846247175828177,-0.097554455759468,9.818517619846062,-0.000568070517672,-0.0299878961540425,0.0499949564764797,0.009999999999999787
3.18,0.2813269852220781,-0.0992548624810065,9.82151087614388,-0.0007679580901047,-0.0299778758559816,0.0499907807567145,0.010000000000000231
3.19,0.2780112480303106,-0.1009516960382153,9.824499528244711,-0.0009677688673682,-0.0299648577953165,0.049985355270034,0.009999999999999787
3.2,0.2746777182135631,-0.1026448953452694,9.827482380727574,-0.0011674828685516,-0.0299488432738425,0.0499786801520752,0.010000000000000231
3.21,0.2713266091166068,-0.1043343994471767,9.83045824049124,-0.0013670801224209,-0.0299298338929985,0.0499707555697157,0.009999999999999787
3.22,0.2679581352092793,-0.1060201475219721,9.833425917231482,-0.0015665406694173,-0.0299078315537066,0.0499615817210695,0.010000000000000231
3.23,0.2645725120727615,-0.1077020788829068,9.836384223917172,-0.0017658445636521,-0.0298828384561824,0.0499511588354825,0.009999999999999787
3.24,0.261169956385778,-0.1093801329806335,9.839331977265084,-0.0019649718749021,-0.0298548570997149,0.0499394871735262,0.010000000000000231
3.25,0.2577506859107321,-0.111054249405386,9.842267998213172,-0.0021639026906021,-0.0298238902824163,0.0499265670269915,0.009999999999999787
3.26,0.2543149194797661,-0.1127243678891537,9.845191112392213,-0.0023626171178363,-0.0297899411009427,0.0499123987188816,0.009999999999999787
3.27,0.2508628769807598,-0.1143904283078517,9.848100150595505,-0.0025610952853275,-0.0297530129501839,0.0498969826034033,0.010000000000000231
3.28,0.247394779343254,-0.1160523706834847,9.850993949246552,-0.0027593173454245,-0.0297131095229241,0.0498803190659586,0.009999999999999787
3.29,0.2439108485243146,-0.1177101351863067,9.85387135086448,-0.0029572634760863,-0.0296702348094729,0.0498624085231353,0.010000000000000231
3.3000000000000003,0.2404113074943239,-0.1193636621369747,9.856731204527009,-0.0031549138828649,-0.0296243930972659,0.0498432514226959,0.010000000000000231
3.31,0.2368963802227142,-0.1210128920086971,9.859572366330797,-0.0033522488008843,-0.029575588970436,0.0498228482435669,0.009999999999999787
3.3200000000000003,0.2333662916636303,-0.1226577654293765,9.862393699849012,-0.0035492484968172,-0.0295238273093554,0.0498011994958268,0.010000000000000231
3.33,0.2298212677415358,-0.1242982231837475,9.865194076585858,-0.003745893270858,-0.0294691132901469,0.0497783057206931,0.009999999999999787
3.34,0.2262615353367512,-0.125934206215508,9.867972376427982,-0.0039421634586933,-0.0294114523841669,0.049754167490509,0.009999999999999787
3.35,0.2226873222709355,-0.1275656556294456,9.87072748809249,-0.0041380394334679,-0.029350850357458,0.0497287854087289,0.010000000000000231
3.36,0.2190988572925049,-0.1291925126935578,9.87345830957145,-0.0043335016077475,-0.0292873132701722,0.0497021601099038,0.009999999999999787
3.37,0.2154963700619932,-0.1308147188411656,9.87616374857268,-0.0045285304354776,-0.0292208474759655,0.0496742922596645,0.010000000000000231
3.38,0.2118800911373534,-0.1324322156730232,9.878842722956652,-0.0047231064139379,-0.0291514596213618,0.0496451825547059,0.009999999999999787
3.39,0.2082502519592024,-0.1340449449594192,9.881494161169336,-0.0049172100856927,-0.0290791566450888,0.0496148317227691,0.010000000000000231
3.4,0.2046070848360086,-0.1356528486422736,9.884117002670791,-0.0051108220405366,-0.0290039457773838,0.0495832405226234,0.009999999999999787
3.41,0.2009508229292244,-0.1372558688372272,9.886710198359394,-0.0053039229174354,-0.0289258345392709,0.049550409744047,0.010000000000000231
3.42,0.1972817002383638,-0.1388539478357264,9.88927271099144,-0.0054964934064624,-0.0288448307418089,0.0495163402078079,0.009999999999999787
3.43,0.1935999515860266,-0.1404470281070996,9.891803515596044,-0.0056885142507292,-0.02876094248531,0.0494810327656424,0.010000000000000231
3.44,0.1899058126028699,-0.1420350523006293,9.894301599885113,-0.0058799662483113,-0.0286741781585299,0.049444488300235,0.009999999999999787
3.45,0.1861995197125276,-0.1436179632476159,9.89676596465823,-0.0060708302541685,-0.0285845464378291,0.0494067077251953,0.010000000000000231
3.46,0.1824813101164797,-0.1451957039634364,9.899195624202347,-0.0062610871820594,-0.0284920562863048,0.0493676919850358,0.009999999999999787
3.47,0.1787514217788712,-0.1467682176495952,9.901589606686048,-0.0064507180064495,-0.0283967169528952,0.0493274420551478,0.010000000000000231
3.48,0.1750100934112825,-0.1483354476957697,9.90394695454825,-0.0066397037644146,-0.0282985379714542,0.0492859589417776,0.009999999999999787
3.49,0.1712575644574522,-0.1498973376818472,9.90626672488124,-0.0068280255575364,-0.0281975291597981,0.0492432436820009,0.010000000000000231
3.5,0.1674940750779523,-0.1514538313799572,9.908547989807818,-0.0070156645537923,-0.0280937006187238,0.0491992973436968,0.009999999999999787
3.51,0.1637198661348186,-0.1530048727564944,9.91078983685243,-0.0072026019894393,-0.0279870627309991,0.0491541210255216,0.009999999999999787
3.52,0.1599351791761353,-0.154550405974137,9.912991369306146,-0.0073888191708895,-0.0278776261603236,0.0491077158568809,0.010000000000000231
3.53,0.1561402564205758,-0.1560903753938558,9.91515170658534,-0.0075742974765799,-0.0277654018502635,0.0490600829979014,0.009999999999999787
3.54,0.1523353407419011,-0.1576247255769183,9.917269984583903,-0.0077590183588346,-0.0276504010231561,0.0490112236394022,0.010000000000000231
3.5500000000000003,0.1485206756534159,-0.1591534012868834,9.919345356018882,-0.0079429633457192,-0.0275326351789882,0.0489611390028647,0.010000000000000231
3.56,0.1446965052923839,-0.1606763474915908,9.921376990769373,-0.0081261140428883,-0.0274121160942463,0.0489098303404022,0.009999999999999787
3.5700000000000003,0.1408630744044028,-0.1621935093651414,9.92336407620856,-0.0083084521354249,-0.0272888558207383,0.0488572989347285,0.010000000000000231
3.58,0.137020628327741,-0.1637048322898719,9.925305817528765,-0.0084899593896716,-0.0271628666843888,0.0488035460991262,0.009999999999999787
3.59,0.1331694129776361,-0.1652102618583199,9.927201438059347,-0.0086706176550543,-0.0270341612840066,0.0487485731774132,0.009999999999999787
3.6,0.1293096748305552,-0.1667097438751838,9.929050179577374,-0.008850408865897,-0.0269027524900244,0.0486923815439097,0.010000000000000231
3.61,0.1254416609084231,-0.1682032243592727,9.930851302610884,-0.0090293150432284,-0.026768653443212,0.0486349726034037,0.009999999999999787
3.62,0.1215656187628099,-0.1696906495454507,9.932604086734676,-0.0092073182965799,-0.0266318775533625,0.0485763477911157,0.010000000000000231
3.63,0.1176817964590905,-0.1711719658865716,9.934307830858476,-0.0093844008257745,-0.0264924384979507,0.048516508572663,0.009999999999999787
3.64,0.113790442560566,-0.1726471200554072,9.935961853507347,-0.0095605449227068,-0.0263503502207662,0.0484554564440228,0.010000000000000231
3.65,0.1098918061125584,-0.1741160589465665,9.937565493094285,-0.0097357329731139,-0.0262056269305181,0.0483931929314952,0.009999999999999787
3.66,0.1059861366264689,-0.1755787296784084,9.939118108184836,-0.0099099474583368,-0.0260582830994149,0.0483297195916648,0.010000000000000231
3.67,0.1020736840638122,-0.1770350795949442,9.940619077753665,-0.0100831709570722,-0.0259083334617169,0.0482650380113618,0.009999999999999787
3.68,0.098154698820216,-0.1784850562677346,9.942067801432955,-0.0102553861471144,-0.025755793012263,0.0481991498076224,0.010000000000000231
3.69,0.0942294317093992,-0.1799286074977755,9.943463699752554,-0.0104265758070881,-0.0256006770049709,0.0481320566276481,0.009999999999999787
3.7,0.0902981339471162,-0.1813656813173788,9.944806214371743,-0.0105967228181698,-0.0254430009513122,0.048063760148765,0.010000000000000231
3.71,0.0863610571350827,-0.1827962259920422,9.946094808302576,-0.0107658101658003,-0.0252827806187608,0.0479942620783814,0.009999999999999787
3.72,0.0824184532448699,-0.1842201900223118,9.947328966124664,-0.0109338209413857,-0.0251200320292164,0.0479235641539457,0.010000000000000231
3.73,0.078470574601782,-0.1856375221456364,9.948508194191328,-0.0111007383439884,-0.0249547714574023,0.0478516681429021,0.009999999999999787
3.74,0.0745176738687037,-0.1870481713382126,9.949632020827067,-0.0112665456820074,-0.0247870154292381,0.0477785758426472,0.010000000000000231
3.75,0.0705600040299336,-0.1884520868168217,9.950699996516212,-0.0114312263748468,-0.0246167807201868,0.0477042890804846,0.009999999999999787
3.76,0.0665978183749895,-0.1898492180406583,9.951711694082723,-0.0115947639545748,-0.0244440843535773,0.0476288097135797,0.009999999999999787
3.77,0.0626313704824019,-0.191239514713149,9.952666708861068,-0.0117571420675696,-0.0242689435989025,0.0475521396289126,0.010000000000000231
3.78,0.0586609142034811,-0.192622926783764,9.953564658858063,-0.0119183444761552,-0.0240913759700919,0.0474742807432315,0.009999999999999787
3.79,0.0546867036460746,-0.193999404449818,9.954405184905688,-0.0120783550602252,-0.0239113992237603,0.0473952350030044,0.010000000000000231
3.8,0.0507089931583007,-0.1953688981582637,9.955187950804724,-0.0122371578188543,-0.0237290313574324,0.0473150043843707,0.009999999999999787
3.81,0.0467280373122737,-0.1967313586074755,9.955912643459252,-0.0123947368718992,-0.023544290607743,0.0472335908930917,0.010000000000000231
3.82,0.0427440908878081,-0.1980867367490245,9.956578973001871,-0.0125510764615858,-0.0233571954486129,0.0471509965645005,0.009999999999999787
3.83,0.038757408856116,-0.1994349837894437,9.957186672909655,-0.0127061609540855,-0.0231677645894023,0.0470672234634509,0.010000000000000231
3.84,0.0347682463634861,-0.2007760511919855,9.957735500110736,-0.0128599748410781,-0.0229760169730391,0.0469822736842662,0.009999999999999787
3.85,0.0307768587149565,-0.2021098906783682,9.958225235081551,-0.0130125027413033,-0.0227819717741252,0.0468961493506864,0.010000000000000231
3.86,0.0267835013579743,-0.2034364542305143,9.958655681934644,-0.013163729402098,-0.0225856483970188,0.0468088526158153,0.009999999999999787
3.87,0.0227884298660473,-0.2047556940922793,9.959026668497012,-0.0133136397009223,-0.022387066473894,0.0467203856620667,0.010000000000000231
3.88,0.0187918999223872,-0.2060675627711704,9.95933804637898,-0.0134622186468712,-0.0221862458627777,0.04663075070111,0.009999999999999787
3.89,0.0147941673035464,-0.2073720130400572,9.95958969103354,-0.0136094513821738,-0.0219832066455636,0.0465399499738144,0.010000000000000231
3.9,0.0107954878630479,-0.2086689979388706,9.95978150180619,-0.0137553231836794,-0.0217779691260042,0.0464479857501934,0.009999999999999787
3.91,0.0067961175150111,-0.2099584707762944,9.95991340197518,-0.0138998194643294,-0.0215705538276804,0.0463548603293479,0.010000000000000231
3.92,0.002796312217773,-0.2112403851314458,9.959985338782197,-0.0140429257746161,-0.0213609814919493,0.0462605760394084,0.009999999999999787
3.93,-0.0012036720424925,-0.2125146948555464,9.95999728345348,-0.0141846278040277,-0.0211492730758697,0.0461651352374773,0.010000000000000231
3.94,-0.0052035792681582,-0.2137813540735837,9.959949231211317,-0.0143249113824794,-0.0209354497501069,0.0460685403095697,0.009999999999999787
3.95,-0.0092031534665269,-0.2150403171859628,9.959841201275966,-0.0144637624817302,-0.0207195328968152,0.0459707936705538,0.010000000000000231
3.96,-0.013202138666215,-0.2162915388701475,9.95967323685796,-0.0146011672167859,-0.0205015441075,0.0458718977640904,0.009999999999999787
3.97,-0.0172002789335349,-0.2175349740822923,9.95944540514083,-0.0147371118472876,-0.0202815051808587,0.0457718550625721,0.010000000000000231
3.98,-0.021197318388874,-0.2187705780588639,9.95915779725422,-0.0148715827788854,-0.0200594381206005,0.0456706680670612,0.009999999999999787
3.99,-0.0251930012230715,-0.2199983063182526,9.958810528237455,-0.0150045665645983,-0.0198353651332463,0.0455683393072273,0.010000000000000231
4.0,-0.02918707171379,-0.2212181146623736,9.958403736993509,-0.0151360499061585,-0.0196093086259083,0.045464871341284,0.009999999999999787
4.01,-0.0331792742418813,-0.2224299591782582,9.957937586233452,-0.0152660196553414,-0.0193812912040487,0.0453602667559252,0.009999999999999787
4.0200000000000005,-0.0371693533077465,-0.223633796239635,9.95741226241138,-0.0153944628152804,-0.0191513356692197,0.04525452816626,0.010000000000000675
4.03,-0.0411570535476867,-0.2248295825084995,9.956827975649812,-0.0155213665417666,-0.0189194650167832,0.0451476582157476,0.009999999999999787
4.04,-0.0451421197502482,-0.2260172749366752,9.956184959655666,-0.015646718144533,-0.0186857024336112,0.0450396595761313,0.009999999999999787
4.05,-0.0491242968725543,-0.227196830767363,9.955483471626764,-0.0157705050885239,-0.0184500712957672,0.0449305349473714,0.009999999999999787
4.0600000000000005,-0.0531033300566284,-0.2283682075366806,9.954723792148965,-0.0158927149951479,-0.0182125951661686,0.0448202870575779,0.010000000000000675
4.07,-0.0570789646457044,-0.2295313630751904,9.95390622508393,-0.0160133356435163,-0.0179732977922305,0.0447089186629424,0.009999999999999787
4.08,-0.0610509462005262,-0.2306862555094189,9.953031097447589,-0.0161323549716648,-0.0177322031034909,0.0445964325476689,0.009999999999999787
4.09,-0.0650190205156299,-0.2318328432633631,9.95209875927932,-0.0162497610777596,-0.0174893352092177,0.0444828315239045,0.009999999999999787
4.1,-0.0689829336356134,-0.2329710850599878,9.951109583501966,-0.0163655422212882,-0.017244718395998,0.0443681184316687,0.009999999999999787
4.11,-0.0729424318713908,-0.2341009399227113,9.950063965772648,-0.0164796868242325,-0.0169983771253093,0.044252296138783,0.010000000000000675
4.12,-0.0768972618164259,-0.2352223671768803,9.948962324324516,-0.0165921834722274,-0.0167503360310733,0.0441353675407987,0.009999999999999787
4.13,-0.0808471703629522,-0.2363353264512349,9.94780509979946,-0.0167030209157018,-0.0165006199171927,0.0440173355609245,0.009999999999999787
4.14,-0.0847919047181709,-0.2374397776793615,9.94659275507186,-0.0168121880710038,-0.0162492537550709,0.0438982031499539,0.009999999999999787
4.15,-0.0887312124204302,-0.2385356811011353,9.945325775063443,-0.0169196740215089,-0.0159962626811146,0.0437779732861908,0.010000000000000675
4.16,-0.0926648413553814,-0.239622997264151,9.944004666549324,-0.0170254680187114,-0.0157416719942203,0.0436566489753758,0.009999999999999787
4.17,-0.0965925397721153,-0.2407016870251445,9.942629957955289,-0.0171295594833,-0.0154855071532447,0.0435342332506101,0.009999999999999787
4.18,-0.1005140562992737,-0.2417717115514008,9.941202199146446,-0.0172319380062148,-0.0152277937744583,0.0434107291722806,0.009999999999999787
4.19,-0.1044291399611382,-0.2428330323221528,9.939721961207283,-0.0173325933496888,-0.0149685576289842,0.0432861398279827,0.010000000000000675
4.2,-0.10833754019369,-0.2438856111299669,9.938189836213242,-0.0174315154482717,-0.0147078246402209,0.0431604683324436,0.009999999999999787
4.21,-0.1122390068606485,-0.24492941008212,9.936606436993891,-0.017528694409836,-0.0144456208812502,0.0430337178274442,0.009999999999999787
4.22,-0.1161332902694786,-0.2459643916019625,9.934972396887805,-0.0176241205165665,-0.0141819725722292,0.0429058914817404,0.009999999999999787
4.23,-0.1200201411873719,-0.2469905184302716,9.93328836948924,-0.017717784225932,-0.0139169060777694,0.0427769924909842,0.010000000000000675
4.24,-0.1238993108571959,-0.248007753626592,9.931555028386704,-0.0178096761716397,-0.0136504479042991,0.0426470240776438,0.009999999999999787
4.25,-0.1277705510134158,-0.2490160605705666,9.929773066893524,-0.0178997871645716,-0.0133826246974137,0.0425159894909226,0.009999999999999787
4.26,-0.1316336138979829,-0.2500154029632544,9.92794319777054,-0.0179881081937035,-0.0131134632392108,0.0423838920066785,0.009999999999999787
4.2700000000000005,-0.1354882522761918,-0.2510057448284373,9.926066152941004,-0.0180746304270061,-0.0128429904456117,0.0422507349273416,0.010000000000000675
4.28,-0.1393342194525014,-0.2519870505139148,9.924142683197816,-0.0181593452123281,-0.0125712333636706,0.0421165215818322,0.009999999999999787
4.29,-0.1431712692863253,-0.2529592846927884,9.922173557903234,-0.0182422440782616,-0.0122982191688691,0.0419812553254769,0.009999999999999787
4.3,-0.1469991562077838,-0.2539224123647326,9.920159564681118,-0.0183233187349891,-0.0120239751623992,0.0418449395399248,0.009999999999999787
4.3100000000000005,-0.1508176352334209,-0.2548763988572554,9.918101509101904,-0.0184025610751124,-0.011748528768433,0.0417075776330638,0.010000000000000675
4.32,-0.1546264619818819,-0.2558212098269458,9.916000214360382,-0.0184799631744637,-0.0114719075313804,0.0415691730389341,0.009999999999999787
4.33,-0.1584253926895551,-0.2567568112607111,9.913856520946435,-0.0185555172928975,-0.0111941391131345,0.0414297292176436,0.009999999999999787
4.34,-0.1622141842261717,-0.2576831694770007,9.911671286308843,-0.0186292158750648,-0.0109152512903057,0.0412892496552804,0.009999999999999787
4.3500000000000005,-0.1659925941103672,-0.2586002511270191,9.909445384512328,-0.0187010515511689,-0.0106352719514439,0.0411477378638263,0.010000000000000675
4.36,-0.1697603805251982,-0.2595080231959255,9.907179705887929,-0.0187710171377021,-0.0103542290942496,0.0410051973810687,0.009999999999999787
4.37,-0.1735173023336202,-0.2604064530040237,9.904875156676884,-0.018839105638164,-0.0100721508227745,0.0408616317705122,0.009999999999999787
4.38,-0.1772631190939199,-0.2612955082079376,9.902532658668155,-0.0189053102437612,-0.0097890653446105,0.0407170446212898,0.009999999999999787
4.39,-0.1809975910751034,-0.262175156801776,9.900153148829714,-0.0189696243340885,-0.0095050009680695,0.0405714395480724,0.009999999999999787
4.4,-0.1847204792722387,-0.2630453671182844,9.897737578933764,-0.0190320414777903,-0.0092199860993525,0.0404248201909795,0.010000000000000675
4.41,-0.1884315454217515,-0.2639061078299853,9.895286915176062,-0.0190925554332043,-0.0089340492397089,0.0402771902154872,0.009999999999999787
4.42,-0.1921305520166749,-0.2647573479503062,9.892802137789433,-0.0191511601489854,-0.0086472189825864,0.0401285533123373,0.009999999999999787
4.43,-0.1958172623218499,-0.2655990568346947,9.890284240651695,-0.0192078497647108,-0.0083595240107716,0.0399789131974447,0.009999999999999787
4.44,-0.1994914403890753,-0.2664312041817219,9.887734230888146,-0.0192626186114663,-0.0080709930935219,0.0398282736118043,0.010000000000000675
4.45,-0.2031528510722086,-0.2672537600341729,9.885153128468684,-0.0193154612124127,-0.0077816550836887,0.039676638321398,0.009999999999999787
4.46,-0.2068012600422157,-0.2680666947801261,9.88254196579986,-0.0193663722833341,-0.0074915389148319,0.0395240111171002,0.009999999999999787
4.47,-0.2104364338021683,-0.2688699791540184,9.879901787311931,-0.0194153467331657,-0.0072006735983264,0.039370395814583,0.009999999999999787
4.48,-0.2140581397021866,-0.2696635842376991,9.877233649041088,-0.0194623796645034,-0.0069090882204617,0.0392157962542209,0.010000000000000675
4.49,-0.2176661459543288,-0.2704474814614709,9.874538618207064,-0.0195074663740933,-0.0066168119395325,0.0390602163009951,0.009999999999999787
4.5,-0.2212602216474262,-0.2712216426051183,9.871817772786263,-0.0195506023533019,-0.0063238739829233,0.038903659844396,0.009999999999999787
4.51,-0.2248401367618617,-0.2719860397989239,9.869072201080574,-0.0195917832885673,-0.0060303036441858,0.0387461307983271,0.009999999999999787
4.5200000000000005,-0.22840566218429,-0.2727406455246712,9.86630300128207,-0.0196310050618303,-0.005736130280109,0.0385876331010062,0.010000000000000675
4.53,-0.2319565697223005,-0.2734854326166354,9.86351128103375,-0.0196682637509462,-0.0054413833077843,0.0384281707148676,0.009999999999999787
4.54,-0.235492632119023,-0.2742203742625619,9.86069815698649,-0.0197035556300771,-0.0051460922016633,0.0382677476264626,0.009999999999999787
4.55,-0.2390136230676714,-0.2749454440046308,9.857864754352404,-0.0197368771700647,-0.0048502864906105,0.0381063678463601,0.009999999999999787
4.5600000000000005,-0.2425193172260268,-0.2756606157404095,9.855012206454765,-0.0197682250387826,-0.0045539957549506,0.037944035409046,0.010000000000000675
4.57,-0.2460094902308592,-0.2763658637237929,9.852141654274696,-0.01979759610147,-0.0042572496235102,0.0377807543728231,0.009999999999999787
4.58,-0.2494839187122878,-0.2770611625659296,9.8492542459948,-0.0198249874210453,-0.0039600777706551,0.0376165288197085,0.009999999999999787
4.59,-0.252942380308076,-0.2777464872361367,9.846351136539887,-0.0198503962583992,-0.003662509913323,0.0374513628553326,0.009999999999999787
4.6000000000000005,-0.2563846536778621,-0.2784218130627998,9.843433487115036,-0.0198738200726692,-0.0033645758080516,0.037285260608836,0.010000000000000675
4.61,-0.259810518517325,-0.2790871157342621,9.840502464741114,-0.0198952565214935,-0.0030663052480032,0.037118226232766,0.009999999999999787
4.62,-0.2632197555722845,-0.2797423712996993,9.837559241787988,-0.0199147034612449,-0.0027677280599853,0.0369502639029735,0.009999999999999787
4.63,-0.2666121466527331,-0.280387556169982,9.8346049955056,-0.0199321589472457,-0.0024688741014678,0.0367813778185079,0.009999999999999787
4.64,-0.2699874746467991,-0.2810226471185243,9.83164090755307,-0.0199476212339618,-0.0021697732575976,0.0366115722015125,0.009999999999999787
4.65,-0.2733455235346437,-0.2816476212821208,9.82866816352606,-0.0199610887751775,-0.0018704554382097,0.036440851297119,0.010000000000000675
4.66,-0.2766860784022834,-0.282262456161769,9.825687952482546,-0.0199725602241499,-0.0015709505748367,0.0362692193733409,0.009999999999999787
4.67,-0.2800089254553475,-0.2828671296234798,9.822701466467208,-0.0199820344337436,-0.0012712886177154,0.0360966807209676,0.009999999999999787
4.68,-0.2833138520327584,-0.2834616198990736,9.819709900034637,-0.0199895104565456,-0.0009714995327917,0.0359232396534563,0.009999999999999787
4.69,-0.286600646620344,-0.284045905586965,9.816714449771512,-0.0199949875449598,-0.0006716132987243,0.0357489005068246,0.010000000000000675
4.7,-0.2898690988643715,-0.284619965652932,9.813716313818004,-0.019998465151282,-0.0003716599038867,0.0355736676395422,0.009999999999999787
4.71,-0.2931189995850137,-0.2851837794308746,9.81071669138852,-0.0199999429277543,-7.166934336844615e-05,0.0353975454324216,0.009999999999999787
4.72,-0.2963501407897333,-0.2857373266235575,9.807716782292037,-0.0199994207266004,0.0002283283840244,0.0352205382885088,0.009999999999999787
4.73,-0.2995623156865969,-0.2862805873033414,9.804717786452192,-0.01999689860004,0.0005283032787692,0.0350426506329731,0.010000000000000675
4.74,-0.3027553186975064,-0.2868135419129007,9.80172090342734,-0.0199923768002837,0.0008282253436263,0.0348638869129968,0.009999999999999787
4.75,-0.3059289454713596,-0.2873361712659271,9.79872733193073,-0.0199858557795075,0.0011280645866392,0.0346842515976635,0.009999999999999787
4.76,-0.3090829928971261,-0.28784845654782,9.795738269351046,-0.0199773361898082,0.0014277910241336,0.0345037491778468,0.009999999999999787
4.7700000000000005,-0.3122172591168478,-0.2883503793163649,9.79275491127347,-0.0199668188831377,0.0017273746837154,0.0343223841660976,0.010000000000000675
4.78,-0.3153315435385553,-0.2888419215023962,9.789778451001451,-0.0199543049112178,0.0020267856072682,0.0341401610965319,0.009999999999999787
4.79,-0.3184256468491096,-0.2893230654104483,9.786810079079416,-0.0199397955254353,0.0023259938539493,0.033957084524717,0.009999999999999787
4.8,-0.3214993710269544,-0.2897937937193924,9.783850982816553,-0.0199232921767168,0.0026249695031833,0.0337731590275575,0.009999999999999787
4.8100000000000005,-0.3245525193547922,-0.2902540894830603,9.780902345811915,-0.0199047965153832,0.0029236826576545,0.0335883892031813,0.010000000000000675
4.82,-0.3275848964321711,-0.2907039361308543,9.77796534748099,-0.0198843103909854,0.0032221034462964,0.0334027796708245,0.009999999999999787
4.83,-0.3305963081879939,-0.2911433174683435,9.775041162583948,-0.0198618358521187,0.0035202020272786,0.0332163350707156,0.009999999999999787
4.84,-0.3335865618929359,-0.2915722176778473,9.772130960755762,-0.0198373751462182,0.0038179485909916,0.03302906006396,0.009999999999999787
4.8500000000000005,-0.3365554661717811,-0.2919906213190046,9.76923590603836,-0.0198109307193342,0.0041153133630272,0.032840959332423,0.010000000000000675
4.86,-0.3395028310156683,-0.2923985133293292,9.766357156415026,-0.0197825052158873,0.0044122666071558,0.0326520375786132,0.009999999999999787
4.87,-0.3424284677942539,-0.292795879024753,9.763495863347233,-0.0197521014784043,0.0047087786283007,0.0324622995255645,0.009999999999999787
4.88,-0.3453321892677826,-0.2931827041001538,9.760653171314052,-0.0197197225472334,0.0050048197755066,0.0322717499167185,0.009999999999999787
4.89,-0.3482138095990715,-0.2935589746298707,9.757830217354396,-0.0196853716602408,0.0053003604449057,0.0320803935158053,0.009999999999999787
4.9,-0.3510731443654029,-0.2939246770682052,9.755028130612212,-0.0196490522524866,0.0055953710826772,0.0318882351067251,0.010000000000000675
4.91,-0.3539100105703274,-0.2942797982499092,9.752248031884832,-0.0196107679558813,0.0058898221880033,0.0316952794934281,0.009999999999999787
4.92,-0.3567242266553763,-0.2946243253906583,9.749491033174683,-0.0195705225988227,0.0061836843160187,0.0315015314997946,0.009999999999999787
4.93,-0.3595156125116811,-0.2949582460875127,9.746758237244492,-0.0195283202058129,0.0064769280807556,0.0313069959695142,0.009999999999999787
4.94,-0.3622839894914996,-0.2952815483193635,9.744050737176188,-0.0194841649970561,0.0067695241580818,0.0311116777659652,0.010000000000000675
4.95,-0.3650291804196499,-0.2955942204473651,9.741369615933705,-0.0194380613880364,0.0070614432886335,0.0309155817720924,0.009999999999999787
4.96,-0.3677510096048496,-0.2958962512153548,9.738715945929783,-0.0193900139890761,0.0073526562807408,0.0307187128902855,0.009999999999999787
4.97,-0.37044930285096,-0.2961876297502574,9.736090788597052,-0.0193400276048753,0.0076431340133472,0.0305210760422563,0.009999999999999787
4.98,-0.3731238874681346,-0.2964683455624772,9.733495193963437,-0.0192881072340306,0.0079328474389216,0.0303226761689157,0.010000000000000675
4.99,-0.3757745922838705,-0.2967383885462754,9.730930200232187,-0.0192342580685358,0.0082217675863628,0.0301235182302501,0.009999999999999787
5.0,-0.3784012476539641,-0.2969977489801336,9.728396833366595,-0.0191784854932627,0.0085098655638967,0.0299236072051978,0.009999999999999787
5.01,-0.3810036854733687,-0.2972464175271042,9.725896106679627,-0.0191207950854223,0.0087971125619658,0.0297229480915238,0.009999999999999787
5.0200000000000005,-0.3835817391869523,-0.2974843852351465,9.723429020428618,-0.0190611926140073,0.0090834798561097,0.0295215459056956,0.010000000000000675
5.03,-0.3861352438001563,-0.2977116435374485,9.720996561415172,-0.0189996840392152,0.0093689388098374,0.0293194056827573,0.009999999999999787
5.04,-0.388664035889558,-0.297928184252736,9.718599702590469,-0.0189362755118521,0.0096534608774916,0.029116532476204,0.009999999999999787
5.05,-0.3911679536133264,-0.2981339995855667,9.716239402666067,-0.0188709733727181,0.0099370176071026,0.0289129313578554,0.009999999999999787
5.0600000000000005,-0.3936468367215822,-0.2983290821266106,9.713916605730478,-0.0188037841519725,0.0102195806432337,0.0287086074177286,0.010000000000000675
5.07,-0.3961005265666518,-0.2985134248529175,9.711632240871502,-0.0187347145684815,0.0105011217298167,0.0285035657639116,0.009999999999999787
5.08,-0.3985288661132233,-0.2986870211281692,9.709387221804626,-0.0186637715291459,0.0107816127129776,0.0282978115224351,0.009999999999999787
5.09,-0.4009316999483946,-0.2988498647029183,9.70718244650754,-0.0185909621282105,0.0110610255438519,0.0280913498371444,0.009999999999999787
5.1000000000000005,-0.4033088742916205,-0.299001949714814,9.70501879686097,-0.0185162936465546,0.0113393322813894,0.0278841858695708,0.010000000000000675
5.11,-0.4056602370045536,-0.299143270688812,9.702897138295922,-0.0184397735509643,0.0116165050951481,0.0276763247988028,0.009999999999999787
5.12,-0.4079856376007839,-0.2992738225373727,9.70081831944754,-0.0183614094933853,0.0118925162680776,0.0274677718213563,0.009999999999999787
5.13,-0.4102849272554664,-0.2993936005606435,9.69878317181564,-0.0182812093101581,0.0121673381992908,0.0272585321510449,0.009999999999999787
5.14,-0.4125579588148482,-0.2995026004466287,9.696792509432145,-0.0181991810212342,0.0124409434068234,0.0270486110188494,0.009999999999999787
5.15,-0.4148045868056854,-0.2996008182713441,9.694847128535462,-0.018115332829374,0.0127133045303828,0.0268380136727872,0.010000000000000675
5.16,-0.4170246674445533,-0.2996882504989585,9.692947807252017,-0.018029673119327,0.0129843943340835,0.026626745377781,0.009999999999999787
5.17,-0.4192180586470489,-0.2997648939819212,9.691095305284993,-0.0179422104569928,0.0132541857091711,0.0264148114155272,0.009999999999999787
5.18,-0.4213846200368839,-0.2998307459610752,9.68929036361048,-0.0178529535885646,0.0135226516767329,0.0262022170843638,0.009999999999999787
5.19,-0.4235242129548688,-0.2998858040657562,9.687533704181083,-0.017761911439655,0.0137897653903959,0.0259889676991379,0.010000000000000675
5.2,-0.4256367004677872,-0.2999300663138785,9.685826029637152,-0.017669093114403,0.0140555001390113,0.0257750685910732,0.009999999999999787
5.21,-0.4277219473771594,-0.2999635311120059,9.684168023025736,-0.0175745078945637,0.0143198293493256,0.0255605251076361,0.009999999999999787
5.22,-0.4297798202278949,-0.2999861972554093,9.682560347527373,-0.0174781652385804,0.0145827265886382,0.0253453426124026,0.009999999999999787
5.23,-0.4318101873168337,-0.2999980639281099,9.681003646190822,-0.0173800747806383,0.0148441655674441,0.0251295264849239,0.010000000000000675
5.24,-0.433812918701175,-0.299999130702909,9.67949854167587,-0.0172802463297014,0.0151041201420634,0.0249130821205919,0.009999999999999787
5.25,-0.4357878862067941,-0.2999893975414026,9.67804563600425,-0.0171786898685318,0.0153625643172552,0.0246960149305044,0.009999999999999787
5.26,-0.4377349634364444,-0.2999688647939835,9.67664551031886,-0.0170754155526908,0.0156194722488173,0.0244783303413299,0.009999999999999787
5.2700000000000005,-0.4396540257778481,-0.2999375331998284,9.675298724651308,-0.016970433709524,0.0158748182461708,0.0242600337951718,0.010000000000000675
5.28,-0.4415449504116702,-0.2998954038868713,9.674005817697902,-0.0168637548371283,0.0161285767749286,0.0240411307494324,0.009999999999999787
5.29,-0.4434076163193797,-0.299842478371763,9.672767306604184,-0.0167553896033019,0.0163807224594494,0.0238216266766763,0.009999999999999787
5.3,-0.4452419042909942,-0.2997787585598163,9.67158368675808,-0.016645348844478,0.0166312300853748,0.0236015270644941,0.009999999999999787
5.3100000000000005,-0.4470476969327097,-0.2997042467449374,9.670455431591746,-0.0165336435646407,0.0168800746021509,0.0233808374153645,0.010000000000000675
5.32,-0.4488248786744134,-0.2996189456095438,9.669382992392206,-0.0164202849342249,0.0171272311255336,0.0231595632465172,0.009999999999999787
5.33,-0.4505733357770806,-0.299522858224467,9.66836679812084,-0.0163052842889992,0.0173726749400763,0.022937710089795,0.009999999999999787
5.34,-0.4522929563400533,-0.2994159880488425,9.66740725524181,-0.0161886531289323,0.0176163815016021,0.0227152834915153,0.009999999999999787
5.3500000000000005,-0.4539836303082027,-0.2992983389299852,9.666504747559472,-0.0160704031170431,0.0178583264396582,0.0224922890123313,0.010000000000000675
5.36,-0.4556452494789717,-0.2991699151032506,9.665659636064865,-0.015950546078234,0.0180984855599521,0.0222687322270935,0.009999999999999787
5.37,-0.4572777075093007,-0.2990307211918827,9.66487225879132,-0.0158290939981093,0.018336834846772,0.0220446187247099,0.009999999999999787
5.38,-0.4588808999224328,-0.298880762206847,9.664142930679247,-0.0157060590217756,0.0185733504653879,0.0218199541080063,0.009999999999999787
5.39,-0.460454724114601,-0.298720043546651,9.663471943450167,-0.015581453452628,0.018808008764435,0.0215947439935864,0.009999999999999787
5.4,-0.4619990793615939,-0.2985485709971491,9.662859565490027,-0.0154552897511197,0.019040786278279,0.0213689940116914,0.010000000000000675
5.41,-0.4635138668252032,-0.2983663507313344,9.662306041741845,-0.0153275805335156,0.0192716597293624,0.0211427098060592,0.009999999999999787
5.42,-0.464998989559548,-0.298173389309117,9.661811593607736,-0.0151983385706312,0.0195006060305325,0.0209158970337829,0.009999999999999787
5.43,-0.4664543525172803,-0.2979696936770871,9.66137641886037,-0.0150675767865549,0.01972760228735,0.0206885613651702,0.009999999999999787
5.44,-0.4678798625556675,-0.2977552711682655,9.661000691563835,-0.0149353082573562,0.0199526258003784,0.0204607084836008,0.010000000000000675
5.45,-0.4692754284425539,-0.2975301295018395,9.660684562004043,-0.0148015462097778,0.0201756540674539,0.0202323440853851,0.009999999999999787
5.46,-0.470640960862199,-0.2972942767828845,9.660428156628608,-0.0146663040199131,0.0203966647859357,0.0200034738796209,0.009999999999999787
5.47,-0.4719763724209939,-0.2970477215020731,9.660231577996251,-0.0145295952118682,0.020615635854936,0.0197741035880517,0.009999999999999787
5.48,-0.4732815776530549,-0.2967904725353688,9.660094904735812,-0.0143914334564101,0.0208325453775304,0.0195442389449226,0.010000000000000675
5.49,-0.4745564930256924,-0.2965225391437065,9.660018191514771,-0.0142518325695992,0.0210473716629475,0.0193138856968378,0.009999999999999787
5.5,-0.475801036944758,-0.2962439309726594,9.660001469017397,-0.0141108065114078,0.0212600932287378,0.0190830496026165,0.009999999999999787
5.51,-0.4770151297598655,-0.2959546580520917,9.660044743932456,-0.0139683693843242,0.0214706888029218,0.0188517364331491,0.009999999999999787
5.5200000000000005,-0.4781986937694892,-0.295654730795797,9.660147998950569,-0.0138245354319425,0.0216791373261177,0.0186199519712527,0.010000000000000675
5.53,-0.4793516532259364,-0.2953441600011245,9.6603111927711,-0.013679319037538,0.0218854179536469,0.0183877020115268,0.009999999999999787
5.54,-0.4804739343401956,-0.2950229568485891,9.6605342601187,-0.0135327347226291,0.0220895100576185,0.0181549923602084,0.009999999999999787
5.55,-0.4815654652866583,-0.2946911329014695,9.660817111769402,-0.0133847971455252,0.0222913932289922,0.0179218288350265,0.009999999999999787
5.5600000000000005,-0.4826261762077167,-0.294348700105392,9.661159634586316,-0.0132355210998607,0.0224910472796192,0.0176882172650571,0.010000000000000675
5.57,-0.4836559992182339,-0.2939956707879004,9.661561691564886,-0.0130849215131158,0.0226884522442606,0.0174541634905774,0.009999999999999787
5.58,-0.4846548684098887,-0.293632057658012,9.662023121887678,-0.0129330134451236,0.0228835883825846,0.0172196733629195,0.009999999999999787
5.59,-0.4856227198553937,-0.29325787380576,9.662543740988715,-0.0127798120865644,0.0230764361811399,0.0169847527443243,0.009999999999999787
5.6000000000000005,-0.4865594916125869,-0.2928731327017229,9.663123340627305,-0.0126253327574464,0.0232669763553075,0.0167494075077952,0.010000000000000675
5.61,-0.4874651237283955,-0.2924778481965388,9.663761688971308,-0.0124695909055737,0.0234551898512285,0.0165136435369507,0.009999999999999787
5.62,-0.4883395582426732,-0.2920720345204072,9.664458530689908,-0.0123126021050017,0.0236410578477104,0.016277466725878,0.009999999999999787
5.63,-0.4891827391919096,-0.2916557062825766,9.665213587055703,-0.0121543820544797,0.0238245617581083,0.0160408829789848,0.009999999999999787
5.64,-0.4899946126128116,-0.2912288784708185,9.666026556056217,-0.0119949465758808,0.0240056832321841,0.0158038982108526,0.009999999999999787
5.65,-0.4907751265457578,-0.2907915664508882,9.666897112514688,-0.0118343116126201,0.0241844041579414,0.0155665183460883,0.010000000000000675
5.66,-0.4915242310381224,-0.2903437859659711,9.66782490822014,-0.0116724932280601,0.0243607066634365,0.0153287493191761,0.009999999999999787
5.67,-0.4922418781474739,-0.2898855531361164,9.66880957206666,-0.0115095076039043,0.0245345731185658,0.0150905970743293,0.009999999999999787
5.68,-0.4929280219446421,-0.2894168844576564,9.66985071020184,-0.0113453710385793,0.0247059861368286,0.0148520675653416,0.009999999999999787
5.69,-0.4935826185166583,-0.2889377968026128,9.670947906184308,-0.0111800999456049,0.024874928577066,0.0146131667554383,0.010000000000000675
5.7,-0.4942056259695653,-0.2884483074180896,9.6721007211503,-0.0110137108519527,0.0250413835451747,0.0143739006171272,0.009999999999999787
5.71,-0.4947970044310987,-0.2879484339256518,9.673308693989195,-0.0108462203963933,0.0252053343957967,0.0141342751320493,0.009999999999999787
5.72,-0.4953567160532388,-0.287438194320691,9.674571341527972,-0.0106776453278328,0.0253667647339835,0.0138942962908293,0.009999999999999787
5.73,-0.495884725014633,-0.2869176069717779,9.675888158724446,-0.0105080025036375,0.0255256584168357,0.0136539700929256,0.010000000000000675
5.74,-0.4963809975228878,-0.286386690620001,9.677258618869296,-0.0103373088879485,0.0256819995551176,0.0134133025464808,0.009999999999999787
5.75,-0.4968455018167322,-0.2858454643782914,9.678682173796735,-0.0101655815499851,0.0258357725148456,0.013172299668171,0.009999999999999787
5.76,-0.4972782081680499,-0.2852939477307354,9.680158254103777,-0.009992837662338,0.0259869619188518,0.0129309674830555,0.009999999999999787
5.7700000000000005,-0.4976790888837821,-0.284732160531873,9.681686269377977,-0.009819094499252,0.0261355526483219,0.0126893120244264,0.010000000000000675
5.78,-0.4980481183076999,-0.2841601230059823,9.683265608433596,-0.0096443694348986,0.0262815298443067,0.0124473393336576,0.009999999999999787
5.79,-0.498385272822046,-0.2835778557463528,9.684895639556077,-0.0094686799416387,0.0264248789092082,0.0122050554600537,0.009999999999999787
5.8,-0.4986905308490466,-0.2829853797145427,9.686575710754694,-0.0092920435882751,0.0265655855082395,0.0119624664606991,0.009999999999999787
5.8100000000000005,-0.4989638728522923,-0.2823827162396253,9.688305150023377,-0.009114478038296,0.0267036355708579,0.0117195784003059,0.010000000000000675
5.82,-0.499205281337988,-0.2817698870174205,9.690083265609474,-0.0089360010481086,0.0268390152921722,0.0114763973510632,0.009999999999999787
5.83,-0.4994147408560732,-0.2811469141097143,9.691909346290458,-0.0087566304652629,0.026971711134323,0.0112329293924844,0.009999999999999787
5.84,-0.49959223800121,-0.2805138199434639,9.693782661658403,-0.0085763842266679,0.0271017098278367,0.0109891806112558,0.009999999999999787
5.8500000000000005,-0.499737761413642,-0.279870627309991,9.695702462412145,-0.0083952803567971,0.0272289983729524,0.0107451571010843,0.010000000000000675
5.86,-0.4998513017799202,-0.279217359364161,9.697667980656972,-0.0082133369658868,0.0273535640409214,0.0105008649625449,0.009999999999999787
5.87,-0.4999328518335001,-0.2785540396235493,9.6996784302118,-0.0080305722481242,0.027475394375281,0.0102563103029284,0.009999999999999787
5.88,-0.4999824063552061,-0.2778806919675949,9.701733006923606,-0.007847004479829,0.0275944771930991,0.0100114992360885,0.009999999999999787
5.89,-0.4999999621735655,-0.2771973406367408,9.7038308889891,-0.007662652017625,0.0277108005861933,0.0097664378822891,0.009999999999999787
5.9,-0.4999855181650122,-0.276504010231561,9.705971237283432,-0.0074775332966047,0.027824352922321,0.0095211323680513,0.010000000000000675
5.91,-0.4999390752539577,-0.2758007257118753,9.708153195695818,-0.007291666828486,0.0279351228463434,0.0092755888260002,0.009999999999999787
5.92,-0.4998606364127324,-0.2750875123958504,9.710375891471989,-0.0071050711997608,0.0280430992813604,0.0090298133947116,0.009999999999999787
5.93,-0.4997502066613954,-0.2743643959590887,9.712638435563262,-0.0069177650698365,0.0281482714298184,0.0087838122185584,0.009999999999999787
5.94,-0.4996077930674132,-0.2736314024337037,9.714939922982175,-0.00672976716917,0.0282506287745903,0.0085375914475572,0.010000000000000675
5.95,-0.4994334047452071,-0.2728885582073833,9.717279433164446,-0.0065410962973948,0.0283501610800268,0.0082911572372145,0.009999999999999787
5.96,-0.4992270528555702,-0.2721358900224394,9.719656030337193,-0.0063517713214406,0.0284468583929803,0.0080445157483727,0.009999999999999787
5.97,-0.4989887506049529,-0.2713734249748453,9.722068763893231,-0.0061618111736475,0.0285407110438002,0.0077976731470562,0.009999999999999787
5.98,-0.4987185132446181,-0.2706011905132603,9.724516668771315,-0.0059712348498718,0.0286317096472996,0.0075506356043171,0.010000000000000675
5.99,-0.4984163580696645,-0.2698192144380419,9.72699876584213,-0.0057800614075872,0.0287198451036939,0.0073034092960812,0.009999999999999787
6.0,-0.4980823044179203,-0.2690275249002442,9.729514062299936,-0.0055883099639785,0.0288051085995109,0.0070560004029933,0.009999999999999787
6.01,-0.4977163736687051,-0.2682261504006048,9.73206155205969,-0.0053959996940303,0.0288874916084722,0.0068084151102628,0.009999999999999787
6.0200000000000005,-0.4973185892414618,-0.2674151197885195,9.734640216159455,-0.0052031498286093,0.0289669858923455,0.0065606596075091,0.010000000000000675
6.03,-0.4968889765942581,-0.2665944622610026,9.737249023167974,-0.0050097796525414,0.0290435835017686,0.006312740088607,0.009999999999999787
6.04,-0.4964275632221568,-0.2657642073616365,9.739886929597226,-0.0048159085026831,0.0291172767770444,0.0060646627515314,0.009999999999999787
6.05,-0.4959343786554563,-0.2649243849795078,9.74255288031981,-0.0046215557659878,0.0291880583489069,0.005816433798203,0.009999999999999787
6.0600000000000005,-0.4954094544578002,-0.2640750253481316,9.745245808990983,-0.0044267408775671,0.0292559211392577,0.0055680594343324,0.010000000000000675
6.07,-0.4948528242241584,-0.2632161590443631,9.747964638475182,-0.0042314833187477,0.0293208583618745,0.0053195458692661,0.009999999999999787
6.08,-0.4942645235786756,-0.2623478169872962,9.750708281276864,-0.0040358026151225,0.0293828635230891,0.00507089931583,0.009999999999999787
6.09,-0.4936445901723924,-0.2614700304371514,9.75347563997549,-0.0038397183345991,0.029441930422437,0.0048221259901752,0.009999999999999787
6.1000000000000005,-0.492993063680835,-0.2605828309941494,9.756265607664476,-0.0036432500854419,0.0294980531532775,0.0045732321116218,0.010000000000000675
6.11,-0.4923099858014768,-0.2596862505973747,9.759077068393948,-0.0034464175143122,0.0295512261033843,0.0043242239025038,0.009999999999999787
6.12,-0.4915954002510687,-0.2587803215236245,9.7619088976171,-0.003249240304303,0.0296014439555067,0.0040751075880134,0.009999999999999787
6.13,-0.4908493527628422,-0.2578650763862477,9.764759962639998,-0.0030517381729712,0.0296487016879014,0.0038258893960456,0.009999999999999787
6.140000000000001,-0.4900718910835815,-0.2569405481339704,9.767629123074649,-0.0028539308703651,0.0296929945748344,0.0035765755570421,0.010000000000000675
6.15,-0.4892630649705691,-0.2560067700497098,9.77051523129513,-0.0026558381770503,0.029734318187054,0.003327172303836,0.009999999999999787
6.16,-0.4884229261884001,-0.2550637757493762,9.773417132896638,-0.002457479902131,0.0297726683922335,0.0030776858714956,0.009999999999999787
6.17,-0.4875515285056697,-0.2541115991806624,9.776333667157225,-0.0022588758812693,0.0298080413553841,0.0028281224971687,0.009999999999999787
6.18,-0.4866489276915322,-0.2531502746218221,9.779263667502065,-0.0020600459747019,0.0298404335392392,0.0025784884199267,0.009999999999999787
6.19,-0.4857151815121313,-0.2521798366804356,9.782205961970094,-0.0018610100652537,0.0298698417046074,0.0023287898806084,0.010000000000000675
6.2,-0.4847503497269043,-0.251200320292164,9.785159373682754,-0.0016617880563499,0.0298962629106965,0.0020790331216645,0.009999999999999787
6.21,-0.4837544940847559,-0.2502117607194915,9.788122721314735,-0.0014623998700252,0.029919694515408,0.0018292243870008,0.009999999999999787
6.22,-0.4827276783201072,-0.249214193550456,9.7910948195665,-0.0012628654449322,0.029940134175601,0.0015793699218226,0.009999999999999787
6.23,-0.4816699681488166,-0.2482076546973677,9.79407447963837,-0.0010632047343471,0.0299575798473264,0.0013294759724787,0.010000000000000675
6.24,-0.4805814312639742,-0.2471921803955167,9.797060509706048,-0.0008634377041745,0.0299720297860317,0.0010795487863047,0.009999999999999787
6.25,-0.4794621373315692,-0.2461678072018682,9.80005171539732,-0.0006635843309511,0.0299834825467349,0.0008295946114673,0.009999999999999787
6.26,-0.4783121579860309,-0.2451345719937465,9.803046900269791,-0.0004636645998475,0.0299919369841697,0.0005796196968079,0.009999999999999787
6.2700000000000005,-0.4771315668256449,-0.2440925119675075,9.806044866289447,-0.0002636985026704,0.0299973922528992,0.0003296302916861,0.010000000000000675
6.28,-0.4759204394078428,-0.2430416646371997,9.809044414309852,-6.370603586275981e-05,0.0299998478074012,7.963264582434142e-05,0.009999999999999787
6.29,-0.4746788532443658,-0.2419820678332134,9.812044344551794,0.0001362928014954,0.0299993034021222,-0.0001703669908494,0.009999999999999787
6.3,-0.4734068877963044,-0.2409137597009192,9.81504345708317,0.0003362780096869,0.0299957590915024,-0.0004203623683574,0.009999999999999787
6.3100000000000005,-0.4721046244690132,-0.2398367786992943,9.81804055229896,0.0005362295903578,0.0299892152299698,-0.000670347236828,0.010000000000000675
6.32,-0.4707721466069007,-0.2387511635995387,9.821034431401037,0.0007361275485165,0.0299796724719051,-0.0009203153466526,0.009999999999999787
6.33,-0.4694095394880955,-0.2376569534836785,9.824023896877677,0.0009359518945337,0.0299671317715762,-0.0011702604486415,0.009999999999999787
6.34,-0.4680168903189876,-0.2365541877431599,9.827007752982547,0.0011356826461415,0.0299515943830427,-0.0014201762941801,0.009999999999999787
6.3500000000000005,-0.4665942882286486,-0.2354429060774303,9.829984806212993,0.0013352998304311,0.0299330618600305,-0.0016700566353854,0.010000000000000675
6.36,-0.465141824263127,-0.2343231484925098,9.832953865787411,0.0015347834858503,0.0299115360557764,-0.0019198952252617,0.009999999999999787
6.37,-0.4636595913796207,-0.2331949552995503,9.835913744121566,0.0017341136642,0.0298870191228429,-0.0021696858178574,0.009999999999999787
6.38,-0.4621476844405282,-0.2320583671133851,9.83886325730358,0.0019332704326283,0.0298595135129029,-0.0024194221684207,0.009999999999999787
6.390000000000001,-0.4606062002073773,-0.2309134248510662,9.841801225567515,0.0021322338756244,0.0298290219764944,-0.0026690980335557,0.010000000000000675
6.4,-0.4590352373346333,-0.2297601697303912,9.844726473765231,0.0023309840970098,0.0297955475627457,-0.002918707171379,0.009999999999999787
6.41,-0.4574348963633837,-0.2285986432684199,9.847637831836456,0.002529501221928,0.0297590936190703,-0.0031682433416749,0.009999999999999787
6.42,-0.4558052797149041,-0.2274288872799797,9.850534135276776,0.0027277653988319,0.0297196637908322,-0.0034177003060523,0.009999999999999787
6.43,-0.454146491684104,-0.2262509438761596,9.853414225603434,0.002925756801469,0.0296772620209812,-0.0036670718281001,0.009999999999999787
6.44,-0.4524586384328509,-0.2250648554627951,9.8562769508187,0.0031234556308642,0.0296318925496592,-0.0039163516735432,0.010000000000000675
6.45,-0.4507418279831774,-0.2238706647389408,9.859121165870654,0.0033208421172991,0.0295835599137753,-0.0041655336103984,0.009999999999999787
6.46,-0.4489961702103656,-0.222668414695334,9.861945733111202,0.0035178965222896,0.029532268946553,-0.0044146114091303,0.009999999999999787
6.47,-0.4472217768359174,-0.2214581486128464,9.864749522751104,0.0037145991405595,0.0294780247770461,-0.0046635788428069,0.009999999999999787
6.48,-0.4454187614204029,-0.2202399100609261,9.867531413311893,0.0039109303020108,0.0294208328296265,-0.0049124296872554,0.010000000000000675
6.49,-0.4435872393561939,-0.2190137428960294,9.87029029207443,0.004106870373691,0.0293606988234411,-0.0051611577212175,0.009999999999999787
6.5,-0.4417273278600765,-0.217779691260042,9.873025055523996,0.0043023997617563,0.0292976287718407,-0.0054097567265054,0.009999999999999787
6.51,-0.4398391459657522,-0.2165377995786895,9.875734609791678,0.0044974989134306,0.0292316289817776,-0.0056582204881568,0.009999999999999787
6.5200000000000005,-0.4379228145162172,-0.2152881125599381,9.87841787109189,0.0046921483189616,0.0291627060531759,-0.0059065427945908,0.010000000000000675
6.53,-0.435978456156031,-0.2140306751923855,9.881073766155897,0.0048863285135707,0.0290908668782712,-0.0061547174377626,0.009999999999999787
6.54,-0.4340061953234642,-0.2127655327436415,9.883701232661071,0.0050800200794004,0.0290161186409209,-0.0064027382133189,0.009999999999999787
6.55,-0.4320061582425372,-0.2114927307586973,9.886299219655855,0.0052732036474555,0.0289384688158865,-0.0066505989207534,0.009999999999999787
6.5600000000000005,-0.4299784729149402,-0.210212315058287,9.888866687980087,0.0054658598995402,0.0288579251680858,-0.0068982933635613,0.010000000000000675
6.57,-0.4279232691118428,-0.2089243317372374,9.891402610680668,0.0056579695701898,0.0287744957518166,-0.0071458153493944,0.009999999999999787
6.58,-0.4258406783655861,-0.2076288271628092,9.893905973422331,0.0058495134485973,0.0286881889099508,-0.0073931586902159,0.009999999999999787
6.59,-0.4237308339612674,-0.206325847973027,9.896375774893356,0.0060404723805346,0.0285990132731008,-0.0076403172024552,0.009999999999999787
6.6000000000000005,-0.4215938709282081,-0.2050154410750008,9.898811027206085,0.0062308272702675,0.0285069777587558,-0.0078872847071624,0.010000000000000675
6.61,-0.4194299260313135,-0.2036976536432376,9.901210756292064,0.0064205590824657,0.0284120915703908,-0.0081340550301627,0.009999999999999787
6.62,-0.4172391377623179,-0.2023725331179427,9.90357400229165,0.0066096488441062,0.0283143641965454,-0.0083806220022109,0.009999999999999787
6.63,-0.4150216463309228,-0.2010401272033117,9.905899819937956,0.0067980776463702,0.0282138054098755,-0.0086269794591455,0.009999999999999787
6.640000000000001,-0.4127775936558226,-0.1997004838658136,9.90818727893494,0.0069858266465347,0.0281104252661761,-0.008873121242043,0.010000000000000675
6.65,-0.4105071233556235,-0.198353651332464,9.91043546432949,0.007172877069856,0.0280042341033753,-0.0091190411973715,0.009999999999999787
6.66,-0.4082103807396488,-0.1969996780890886,9.912643476877433,0.0073592102114476,0.027895242540501,-0.0093647331771451,0.009999999999999787
6.67,-0.4058875127986422,-0.195638612878578,9.914810433403186,0.0075448074381508,0.0277834614766186,-0.009610191039077,0.009999999999999787
6.68,-0.4035386681953593,-0.1942705046991326,9.916935467153031,0.0077296501903975,0.0276689020897413,-0.0098554086467334,0.009999999999999787
6.69,-0.4011639972550527,-0.1928954028024992,9.919017728141805,0.0079137199840666,0.0275515758357124,-0.010100379869687,0.010000000000000675
6.7,-0.3987636519558521,-0.1915133566921978,9.921056383492868,0.0080969984123319,0.0274314944470595,-0.0103450985836699,0.009999999999999787
6.71,-0.3963377859190374,-0.1901244161217387,9.923050617771269,0.0082794671475035,0.0273086699318214,-0.0105895586707271,0.009999999999999787
6.72,-0.3938865543992069,-0.1887286310928327,9.92499963330988,0.0084611079428599,0.0271831145723473,-0.0108337540193689,0.009999999999999787
6.73,-0.3914101142743412,-0.1873260518535899,9.926902650528476,0.0086419026344729,0.0270548409240685,-0.0110776785247246,0.010000000000000675
6.74,-0.3889086240357629,-0.1859167288967119,9.928758908245545,0.008821833143024,0.0269238618142428,-0.0113213260886941,0.009999999999999787
6.75,-0.3863822437779936,-0.1845007129576723,9.930567663982744,0.0090008814756123,0.0267901903406723,-0.011564690620101,0.009999999999999787
6.76,-0.3838311351885072,-0.1830780550128923,9.932328194261896,0.0091790297275538,0.0266538398703927,-0.0118077660348448,0.009999999999999787
6.7700000000000005,-0.381255461537383,-0.1816488062779042,9.934039794894368,0.0093562600841716,0.0265148240383375,-0.0120505462560527,0.010000000000000675
6.78,-0.3786553876668552,-0.1802130182055084,9.935701781262722,0.0095325548225779,0.0263731567459742,-0.0122930252142318,0.009999999999999787
6.79,-0.3760310799807642,-0.17877074248392,9.937313488594572,0.0097078963134458,0.0262288521599138,-0.0125351968474208,0.009999999999999787
6.8,-0.3733827064339061,-0.1773220310349094,9.938874272228476,0.0098822670227721,0.0260819247104947,-0.0127770551013415,0.009999999999999787
6.8100000000000005,-0.370710436521284,-0.1758669360119323,9.940383507871788,0.0100556495136314,0.0259323890903394,-0.0130185939295502,0.010000000000000675
6.82,-0.36801444126726,-0.1744055097982525,9.941840591850374,0.010228026447919,0.0257802602528854,-0.0132598072935886,0.009999999999999787
6.83,-0.3652948932146103,-0.1729378050050556,9.943244941350072,0.0103993805880851,0.0256255534108895,-0.0135006891631353,0.009999999999999787
6.84,-0.3625519664134818,-0.1714638744695557,9.944595994649807,0.0105696947988586,0.0254682840349071,-0.0137412335161562,0.009999999999999787
6.8500000000000005,-0.3597858364102537,-0.1699837712530931,9.94589321134627,0.0107389520489602,0.0253084678517447,-0.0139814343390548,0.010000000000000675
6.86,-0.356996680236302,-0.1684975486392237,9.94713607257008,0.010907135412806,0.0251461208428875,-0.0142212856268231,0.009999999999999787
6.87,-0.3541846763966698,-0.1670052601318009,9.948324081193318,0.0110742280721998,0.024981259242901,-0.0144607813831914,0.009999999999999787
6.88,-0.351350004858643,-0.1655069594530498,9.949456762028376,0.0112402133180148,0.0248138995378079,-0.0146999156207783,0.009999999999999787
6.890000000000001,-0.3484928470402324,-0.1640027005416332,9.95053366201802,0.0114050745518649,0.0246440584634391,-0.0149386823612404,0.010000000000000675
6.9,-0.3456133857985632,-0.1624925375507095,9.951554350416616,0.011568795287764,0.0244717530037607,-0.0151770756354214,0.009999999999999787
6.91,-0.342711805418172,-0.160976524845983,9.952518418962413,0.0117313591537749,0.0242970003891749,-0.0154150894835021,0.009999999999999787
6.92,-0.3397882915992128,-0.1594547170037475,9.95342548204084,0.0118927498936465,0.0241198180947977,-0.0156527179551485,0.009999999999999787
6.93,-0.3368430314455721,-0.1579271688089212,9.954275176838769,0.0120529513684394,0.0239402238387107,-0.0158899551096612,0.009999999999999787
6.94,-0.3338762134528943,-0.1563939352530736,9.955067163489604,0.0122119475581395,0.02375823558019,-0.0161267950161239,0.010000000000000675
6.95,-0.3308880274965184,-0.1548550715324474,9.955801125209248,0.0123697225632604,0.0235738715179098,-0.0163632317535511,0.009999999999999787
6.96,-0.3278786648193256,-0.1533106330459704,9.956476768422796,0.0125262606064331,0.0233871500881226,-0.0165992594110367,0.009999999999999787
6.97,-0.3248483180195001,-0.1517606753932615,9.957093822881973,0.0126815460339836,0.0231980899628158,-0.0168348720879015,0.009999999999999787
6.98,-0.3217971810382026,-0.1502052543726283,9.95765204177322,0.0128355633174986,0.0230067100478444,-0.017070063893841,0.010000000000000675
6.99,-0.3187254491471585,-0.1486444259790599,9.958151201816428,0.0129882970553782,0.0228130294810404,-0.0173048289490722,0.009999999999999787
7.0,-0.3156333189361604,-0.1470782464022098,9.95859110335423,0.0131397319743757,0.0226170676302991,-0.0175391613844809,0.009999999999999787
7.01,-0.3125209883004864,-0.1455067720243739,9.95897157043188,0.0132898529311256,0.0224188440916423,-0.0177730553417686,0.009999999999999787
7.0200000000000005,-0.3093886564282347,-0.1439300594184596,9.95929245086762,0.0134386449136572,0.0222183786872586,-0.0180065049735984,0.010000000000000675
7.03,-0.306236523787576,-0.1423481653459506,9.959553616313553,0.0135860930428962,0.0220156914635214,-0.0182395044437417,0.009999999999999787
7.04,-0.3030647921139234,-0.1407611467548628,9.959754962306976,0.0137321825741527,0.0218108026889842,-0.0184720479272238,0.009999999999999787
7.05,-0.2998736643970215,-0.1391690607776942,9.959896408312188,0.0138768988985952,0.0216037328523538,-0.0187041296104699,0.009999999999999787
7.0600000000000005,-0.2966633448679548,-0.1375719647293677,9.959977897752664,0.0140202275447119,0.0213945026604411,-0.0189357436914499,0.010000000000000675
7.07,-0.2934340389860774,-0.1359699161051686,9.95999939803372,0.0141621541797576,0.0211831330360911,-0.0191668843798238,0.009999999999999787
7.08,-0.2901859534258635,-0.1343629725786745,9.959960900555528,0.0143026646111871,0.0209696451160901,-0.0193975458970865,0.009999999999999787
7.09,-0.2869192960636803,-0.132751191999679,9.959862420716563,0.0144417447880743,0.0207540602490521,-0.019627722476712,0.009999999999999787
7.1000000000000005,-0.283634275964484,-0.1311346323921083,9.959703997907456,0.0145793808025175,0.0205363999932841,-0.019857408364298,0.010000000000000675
7.11,-0.2803311033684394,-0.1295133519519341,9.959485695495207,0.0147155588910298,0.0203166861146305,-0.020086597817709,0.009999999999999787
7.12,-0.2770099896774656,-0.127887409045077,9.959207600797878,0.014850265435916,0.0200949405842959,-0.0203152851072208,0.009999999999999787
7.13,-0.2736711474417048,-0.1262568622053063,9.95886982504964,0.0149834869666337,0.0198711855766486,-0.020543464515663,0.009999999999999787
7.140000000000001,-0.2703147903459207,-0.1246217701321318,9.958472503356283,0.015115210161141,0.0196454434670029,-0.0207711303385623,0.010000000000000675
7.15,-0.2669411331958217,-0.1229821916886916,9.958015794641192,0.0152454218472282,0.0194177368293817,-0.0209982768842849,0.009999999999999787
7.16,-0.2635503919043139,-0.1213381858996327,9.957499881581764,0.0153741090038351,0.0191880884342589,-0.0212248984741791,0.009999999999999787
7.17,-0.2601427834776825,-0.1196898119489862,9.95692497053634,0.0155012587623533,0.0189565212462827,-0.0214509894427169,0.009999999999999787
7.18,-0.2567185260017042,-0.1180371291780357,9.956291291461676,0.015626858407913,0.0187230584219789,-0.0216765441376358,0.009999999999999787
7.19,-0.2532778386276874,-0.1163801970831829,9.955599097820947,0.0157508953806542,0.0184877233074354,-0.0219015569200804,0.010000000000000675
7.2,-0.2498209415584508,-0.114719075313804,9.954848666482391,0.015873357276983,0.0182505394359676,-0.0221260221647426,0.009999999999999787
7.21,-0.2463480560342265,-0.1130538236701038,9.95404029760853,0.0159942318508119,0.0180115305257649,-0.0223499342600031,0.009999999999999787
7.22,-0.242859404318503,-0.111384502100961,9.953174314536138,0.0161135070147842,0.0177707204775192,-0.0225732876080711,0.009999999999999787
7.23,-0.2393552096837982,-0.1097111707017721,9.952251063646896,0.0162311708414829,0.0175281333720346,-0.0227960766251247,0.010000000000000675
7.24,-0.2358356963973737,-0.1080338897122867,9.951270914228852,0.0163472115646234,0.0172837934678195,-0.0230182957414499,0.009999999999999787
7.25,-0.2323010897068783,-0.1063527195144395,9.950234258328702,0.0164616175802301,0.0170377251986608,-0.0232399394015804,0.009999999999999787
7.26,-0.2287516158259339,-0.1046677206301757,9.949141510594988,0.0165743774477967,0.0167899531711803,-0.0234610020644363,0.009999999999999787
7.27,-0.2251875019196562,-0.1029789537192733,9.947993108112229,0.0166854798914304,0.0165405021623742,-0.0236814782034626,0.009999999999999787
7.28,-0.2216089760901199,-0.1012864795771587,9.94678951022611,0.0167949138009796,0.0162893971171356,-0.0239013623067671,0.010000000000000675
7.29,-0.2180162673617563,-0.0995903591327185,9.945531198359737,0.0169026682331443,0.0160366631457597,-0.0241206488772588,0.009999999999999787
7.3,-0.2144096056666979,-0.097890653446105,9.944218675821077,0.0170087324125712,0.0157823255214331,-0.0243393324327849,0.009999999999999787
7.31,-0.2107892218300611,-0.0961874237065397,9.942852467601648,0.0171130957329308,0.0155264096777062,-0.0245574075062679,0.009999999999999787
7.32,-0.2071553475551767,-0.0944807312301091,9.941433120166518,0.017215747757978,0.0152689412059503,-0.0247748686458422,0.010000000000000675
7.33,-0.2035082154087577,-0.0927706374575584,9.939961201235745,0.0173166782225957,0.0150099458527978,-0.0249917104149907,0.009999999999999787
7.34,-0.199848058806017,-0.0910572039520782,9.938437299557268,0.0174158770338218,0.0147494495175682,-0.0252079273926805,0.009999999999999787
7.35,-0.1961751119957265,-0.0893404923970899,9.93686202467144,0.0175133342718576,0.0144874782496781,-0.0254235141734984,0.009999999999999787
7.36,-0.1924896100452296,-0.087620564594024,9.935236006667218,0.0176090401910606,0.0142240582460358,-0.0256384653677861,0.010000000000000675
7.37,-0.1887917888253929,-0.0858974824600961,9.933559895930118,0.0177029852209187,0.0139592158484223,-0.025852775601775,0.009999999999999787
7.38,-0.1850818849955125,-0.0841713080260762,9.93183436288209,0.0177951599670071,0.0136929775408566,-0.0260664395177203,0.009999999999999787
7.390000000000001,-0.181360135988166,-0.0824421034340579,9.930060097713348,0.0178855552119281,0.0134253699469476,-0.0262794517740353,0.010000000000000675
7.4,-0.1776267799940209,-0.0807099309352197,9.928237810106298,0.0179741619162325,0.0131564198272317,-0.0264918070454246,0.009999999999999787
7.41,-0.1738820559465859,-0.0789748528875847,9.92636822895169,0.0180609712193236,0.0128861540764967,-0.0267035000230176,0.009999999999999787
7.42,-0.1701262035069224,-0.0772369317537748,9.924452102057057,0.0181459744403436,0.0126145997210924,-0.0269145254145008,0.009999999999999787
7.43,-0.1663594630483037,-0.0754962300987636,9.922490195847606,0.0182291630790412,0.0123417839162282,-0.0271248779442505,0.009999999999999787
7.44,-0.1625820756408333,-0.073752810587622,9.920483295059668,0.0183105288166217,0.0120677339432571,-0.0273345523534643,0.010000000000000675
7.45,-0.158794283036017,-0.0720067359832649,9.918432202426796,0.0183900635165794,0.0117924772069482,-0.0275435434002929,0.009999999999999787
7.46,-0.1549963276512884,-0.070258069144189,9.9163377383587,0.0184677592255103,0.0115160412327455,-0.0277518458599711,0.009999999999999787
7.47,-0.151188452554495,-0.0685068730222119,9.914200740613074,0.0185436081739085,0.0112384536640163,-0.0279594545249482,0.009999999999999787
7.48,-0.1473709014483432,-0.0667532106602043,9.912022063960528,0.0186176027769422,0.010959742259286,-0.0281663642050185,0.010000000000000675
7.49,-0.1435439186548017,-0.0649971451898228,9.909802579842674,0.0186897356352129,0.0106799348894629,-0.0283725697274505,0.009999999999999787
7.5,-0.1397077490994629,-0.0632387398292339,9.907543176023568,0.0187599995354947,0.0103990595350507,-0.0285780659371171,0.009999999999999787
7.51,-0.1358626382958681,-0.0614780578808411,9.90524475623461,0.0188283874514563,0.0101171442833509,-0.0287828476966238,0.009999999999999787
7.52,-0.1320088323297963,-0.0597151627290038,9.90290823981307,0.018894892544363,0.0098342173256537,-0.0289869098864371,0.009999999999999787
7.53,-0.1281465778435148,-0.0579501178377579,9.900534561334366,0.018959508163761,0.009550306954419,-0.029190247405013,0.010000000000000675
7.54,-0.1242761220199923,-0.0561829867485282,9.89812467023824,0.0190222278481421,0.0092654415604475,-0.0293928551689241,0.009999999999999787
7.55,-0.1203977125670796,-0.0544138330778436,9.895679530448998,0.0190830453255902,0.0089796496300412,-0.0295947281129868,0.009999999999999787
7.56,-0.1165115977016578,-0.0526427205150444,9.893200119989956,0.0191419545144083,0.0086929597421548,-0.0297958611903882,0.009999999999999787
7.57,-0.1126180261337527,-0.0508697128199925,9.890687430592235,0.0191989495237265,0.0084054005655383,-0.0299962493728116,0.010000000000000675
7.58,-0.1087172470506157,-0.0490948738207728,9.8881424672981,0.0192540246540914,0.0081170008558698,-0.030195887650563,0.009999999999999787
7.59,-0.1048095101007759,-0.0473182674113981,9.885566248058929,0.0193071743980358,0.0078277894528798,-0.0303947710326958,0.009999999999999787
7.6,-0.100895065378064,-0.0455399575495064,9.88295980332807,0.0193583934406297,0.0075377952774676,-0.0305928945471359,0.009999999999999787
7.61,-0.0969741634056071,-0.0437600082540617,9.880324175648663,0.0194076766600115,0.0072470473288092,-0.0307902532408057,0.010000000000000675
7.62,-0.0930470551197931,-0.0419784836030457,9.877660419236644,0.0194550191279002,0.0069555746814571,-0.0309868421797481,0.009999999999999787
7.63,-0.0891139918542111,-0.0401954477311539,9.874969599559057,0.0195004161100887,0.0066634064824331,-0.0311826564492499,0.009999999999999787
7.640000000000001,-0.0851752253235674,-0.0384109648274844,9.872252792907892,0.0195438630669164,0.0063705719483137,-0.0313776911539646,0.010000000000000675
7.65,-0.0812310076075766,-0.03662509913323,9.869511085969592,0.019585355653724,0.0060771003623083,-0.0315719414180347,0.009999999999999787
7.66,-0.0772815911348261,-0.034837914939362,9.866745575390375,0.0196248897212872,0.0057830210713309,-0.0317654023852137,0.009999999999999787
7.67,-0.0733272286666213,-0.033049476584319,9.8639573673376,0.0196624613162323,0.0054883634830655,-0.0319580692189876,0.009999999999999787
7.68,-0.0693681732808108,-0.031259848451688,9.861147577057311,0.0196980666814312,0.0051931570630254,-0.0321499371026954,0.009999999999999787
7.69,-0.0654046783555874,-0.0294690949678888,9.858317328428155,0.0197317022563769,0.0048974313316066,-0.0323410012396502,0.010000000000000675
7.7,-0.061436997553275,-0.0276772805998535,9.855467753511856,0.01976336467754,0.0046012158611359,-0.0325312568532583,0.009999999999999787
7.71,-0.0574653848040891,-0.0258844698527059,9.852599992100378,0.0197930507787047,0.0043045402729134,-0.0327206991871395,0.009999999999999787
7.72,-0.0534900942898906,-0.0240907272674389,9.849715191260051,0.0198207575912857,0.0040074342342507,-0.0329093235052452,0.009999999999999787
7.73,-0.0495113804279151,-0.0222961174185921,9.846814504872752,0.0198464823446249,0.003709927455504,-0.0330971250919773,0.010000000000000675
7.74,-0.0455294978544928,-0.0205007049119261,9.843899093174354,0.0198702224662683,0.0034120496871035,-0.0332840992523059,0.009999999999999787
7.75,-0.0415447014087482,-0.0187045543820977,9.84097012229067,0.0198919755822235,0.0031138307165775,-0.0334702413118868,0.009999999999999787
7.76,-0.0375572461162939,-0.0169077304903314,9.838028763770998,0.019911739517197,0.0028153003655748,-0.033655546617178,0.009999999999999787
7.77,-0.0335673871729073,-0.0151102979220934,9.83507619411953,0.019929512294812,0.0025164884868816,-0.0338400105355568,0.009999999999999787
7.78,-0.0295753799282001,-0.0133123213847621,9.83211359432476,0.0199452921378053,0.0022174249614368,-0.0340236284554347,0.010000000000000675
7.79,-0.0255814798692721,-0.011513865605299,9.829142149387105,0.0199590774682058,0.0019181396953437,-0.0342063957863732,0.009999999999999787
7.8,-0.0215859426043643,-0.0097149953279174,9.826163047844917,0.0199708669074921,0.0016186626168794,-0.0343883079591986,0.009999999999999787
7.81,-0.0175890238464973,-0.0079157753117531,9.823177481299098,0.0199806592767299,0.0013190236735024,-0.0345693604261162,0.009999999999999787
7.82,-0.0135909793971088,-0.0061162703285325,9.820186643936456,0.0199884535966905,0.0010192528288572,-0.0347495486608236,0.010000000000000675
7.83,-0.0095920651296775,-0.004316545160241,9.81719173205206,0.0199942490879485,0.0007193800597785,-0.0349288681586243,0.009999999999999787
7.84,-0.0055925369733519,-0.0025166645967895,9.81419394357073,0.0199980451709595,0.0004194353532933,-0.0351073144365402,0.009999999999999787
7.85,-0.0015926508965685,-0.0007166934336844,9.811194477567891,0.0199998414661183,0.0001194487036223,-0.0352848830334238,0.009999999999999787
7.86,0.0024073371093277,0.0010833035303068,9.808194533789951,0.0199996377937971,-0.0001805498908194,-0.0354615695100693,0.010000000000000675
7.87,0.0064071710464711,0.0028832614954878,9.805195312174424,0.0199974341743627,-0.0004805304304226,-0.0356373694493239,0.009999999999999787
7.88,0.0104065949268545,0.0046831156635666,9.802198012369963,0.0199932308281754,-0.0007804629173832,-0.0358122784561985,0.009999999999999787
7.890000000000001,0.0144053527887151,0.0064828012399872,9.79920383325653,0.0199870281755663,-0.0010803173587024,-0.0359862921579769,0.010000000000000675
7.9,0.0184031887129134,0.0082822534362634,9.796213972465848,0.0199788268367954,-0.0013800637691861,-0.0361594062043256,0.009999999999999787
7.91,0.0223998468393161,0.0100814074723101,9.793229625902368,0.0199686276319898,-0.0016796721744428,-0.0363316162674025,0.009999999999999787
7.92,0.0263950713831669,0.0118801985787768,9.790251987264924,0.0199564315810614,-0.0019791126138818,-0.0365029180419649,0.009999999999999787
7.930000000000001,0.0303886066514592,0.0136785619993778,9.787282247569271,0.0199422399036053,-0.0022783551437088,-0.0366733072454776,0.010000000000000675
7.94,0.0343801970592974,0.0154764329932241,9.784321594671692,0.0199260540187773,-0.0025773698399199,-0.0368427796182191,0.009999999999999787
7.95,0.0383695871462594,0.0172737468371538,9.781371212793871,0.0199078755451523,-0.0028761268012949,-0.0370113309233891,0.009999999999999787
7.96,0.0423565215927408,0.0190704388280631,9.77843228204922,0.0198877063005628,-0.0031745961523865,-0.0371789569472137,0.009999999999999787
7.97,0.046340745236298,0.0208664442852343,9.775505977970852,0.0198655483019161,-0.0034727480465083,-0.037345653499051,0.009999999999999787
7.98,0.0503220030879776,0.0226616985526648,9.77259347104138,0.0198414037649939,-0.0037705526687195,-0.0375114164114959,0.010000000000000675
7.99,0.0543000403486362,0.0244561370013946,9.769695926224744,0.0198152751042296,-0.0040679802388059,-0.0376762415404842,0.009999999999999787
8.0,0.0582746024252468,0.0262496950318339,9.76681450250024,0.0197871649324676,-0.0043650010142584,-0.0378401247653964,0.009999999999999787
8.01,0.0622454349471932,0.0280423080760869,9.763950352398936,0.0197570760607016,-0.0046615852932469,-0.0380030619891602,0.009999999999999787
8.02,0.0662122837825494,0.0298339116002776,9.761104621542684,0.0197250114977936,-0.0049577034175908,-0.0381650491383536,0.009999999999999787
8.03,0.0701748950543435,0.0316244411068729,9.758278448185887,0.0196909744501734,-0.0052533257757243,-0.0383260821633064,0.009999999999999787
8.040000000000001,0.0741330151568084,0.0334138321370042,9.755472962760203,0.0196549683215172,-0.005548422805658,-0.0384861570382012,0.010000000000001563
8.05,0.0780863907716064,0.0352020202727866,9.7526892874224,0.0196169967124079,-0.0058429649979348,-0.0386452697611745,0.009999999999999787
8.06,0.082034768884048,0.0369889411396413,9.749928535605491,0.0195770634199749,-0.0061369228985809,-0.0388034163544166,0.009999999999999787
8.07,0.0859778967992826,0.0387745304086095,9.7471918115734,0.019535172437514,-0.0064302671120513,-0.0389605928642708,0.009999999999999787
8.08,0.0899155221584691,0.0405587237986709,9.74448020997925,0.0194913279540887,-0.0067229683041689,-0.0391167953613326,0.009999999999999787
8.09,0.0938473929549286,0.0423414570790559,9.741794815427522,0.0194455343541106,-0.0070149972050587,-0.0392720199405477,0.009999999999999787
8.1,0.0977732575502721,0.0441226660715586,9.73913670204023,0.0193977962169017,-0.0073063246120737,-0.0394262627213097,0.009999999999999787
8.11,0.1016928646905052,0.0459022866528483,9.736506933027291,0.0193481183162359,-0.0075969213927161,-0.0395795198475571,0.009999999999999787
8.120000000000001,0.1056059635221104,0.0476802547567762,9.73390656026125,0.0192965056198618,-0.00788675848755,-0.0397317874878698,0.010000000000001563
8.13,0.1095123036080962,0.0494565063766818,9.731336623856537,0.0192429632890061,-0.0081758069131074,-0.0398830618355647,0.009999999999999787
8.14,0.1134116349440307,0.0512309775676993,9.728798151753448,0.0191874966778572,-0.0084640377647866,-0.0400333391087908,0.009999999999999787
8.15,0.1173037079740404,0.0530036044490571,9.726292159306984,0.0191301113330301,-0.0087514222197427,-0.0401826155506244,0.009999999999999787
8.16,0.1211882736067792,0.0547743232063794,9.723819648880706,0.0190708129930114,-0.0090379315397697,-0.040330887429162,0.009999999999999787
8.17,0.1250650832313728,0.0565430700939819,9.72138160944582,0.0190096075875857,-0.0093235370741743,-0.0404781510376144,0.009999999999999787
8.18,0.1289338887333283,0.0583097814371674,9.718979016185592,0.0189465012372425,-0.009608210262641,-0.0406244026943992,0.009999999999999787
8.19,0.1327944425104138,0.0600743936345188,9.716612830105294,0.0188815002525643,-0.0098919226380883,-0.0407696387432324,0.009999999999999787
8.2,0.1366464974885061,0.0618368431601872,9.714283997647808,0.0188146111335954,-0.010174645829515,-0.0409138555532205,0.009999999999999787
8.21,0.140489807137402,0.0635970665661807,9.711993450315068,0.0187458405691919,-0.0104563515648376,-0.0410570495189507,0.010000000000001563
8.22,0.1443241254865935,0.065355000484646,9.70974210429546,0.018675195436353,-0.0107370116737174,-0.0411992170605812,0.009999999999999787
8.23,0.1481492071410168,0.067110581630152,9.707530860097386,0.018602682799533,-0.0110165980903772,-0.0413403546239311,0.009999999999999787
8.24,0.1519648072967513,0.0688637468019674,9.705360602189034,0.0185283099099353,-0.0112950828564085,-0.0414804586805685,0.009999999999999787
8.25,0.1557706817566893,0.0706144328863353,9.703232198644631,0.0184520842047868,-0.0115724381235666,-0.0416195257278993,0.009999999999999787
8.26,0.1595665869461645,0.0723625768587453,9.701146500797222,0.0183740133065944,-0.0118486361565561,-0.0417575522892546,0.009999999999999787
8.27,0.16335227992854,0.0741081157862039,9.699104342898131,0.0182941050223831,-0.0121236493358037,-0.0418945349139776,0.009999999999999787
8.28,0.167127518420758,0.0758509868294975,9.697106541783292,0.0182123673429146,-0.0123974501602208,-0.0420304701775097,0.009999999999999787
8.290000000000001,0.1708920608088439,0.0775911272454577,9.695153896546511,0.0181288084418886,-0.012670011249953,-0.0421653546814765,0.010000000000001563
8.3,0.1746456661633678,0.0793284743892167,9.693247188219855,0.0180434366751258,-0.0129413053491186,-0.0422991850537723,0.009999999999999787
8.31,0.17838809425487,0.0810629657164648,9.691387179461229,0.0179562605797316,-0.0132113053285336,-0.0424319579486448,0.009999999999999787
8.32,0.1821191055692295,0.0827945387857022,9.68957461424933,0.017867288873243,-0.0134799841884251,-0.0425636700467787,0.009999999999999787
8.33,0.1858384613229958,0.0845231312604851,9.687810217586083,0.0177765304527564,-0.0137473150611311,-0.0426943180553782,0.009999999999999787
8.34,0.1895459234786701,0.0862486809116708,9.686094695206627,0.0176839943940382,-0.014013271213787,-0.04282389870825,0.009999999999999787
8.35,0.1932412547599396,0.0879711256196589,9.684428733297038,0.0175896899506173,-0.0142778260509992,-0.0429524087658845,0.009999999999999787
8.36,0.1969242186668645,0.0896904033766252,9.68281299821987,0.0174936265528593,-0.0145409531175045,-0.043079845015537,0.009999999999999787
8.370000000000001,0.2005945794910121,0.0914064522887571,9.68124813624761,0.0173958138070239,-0.0148026261008155,-0.0432062042713078,0.010000000000001563
8.38,0.2042521023305405,0.0931192105784782,9.679734773304183,0.0172962614943044,-0.0150628188338519,-0.0433314833742222,0.009999999999999787
8.39,0.2078965531052381,0.094828616586675,9.678273514714586,0.0171949795698489,-0.0153215052975571,-0.043455679192309,0.009999999999999787
8.4,0.2115276985714988,0.0965346087749165,9.676864944962777,0.0170919781617656,-0.0155786596235005,-0.0435787886206794,0.009999999999999787
8.41,0.2151453063372522,0.0982371257276678,9.675509627457869,0.0169872675701093,-0.0158342560964637,-0.0437008085816039,0.009999999999999787
8.42,0.2187491448768362,0.0999361061545023,9.674208104308796,0.016880858265852,-0.0160882691570125,-0.04382173602459,0.009999999999999787
8.43,0.2223389835458138,0.1016314888923085,9.672960896107467,0.0167727608898355,-0.0163406734040524,-0.0439415679264579,0.009999999999999787
8.44,0.2259145925957365,0.1033232129074905,9.671768501720532,0.0166629862517073,-0.016591443597369,-0.0440603012914162,0.009999999999999787
8.45,0.2294757431888451,0.105011217298167,9.670631398089846,0.0165515453288396,-0.0168405546601521,-0.0441779331511371,0.009999999999999787
8.46,0.2330222074127175,0.1066954412963623,9.6695500400417,0.016438449265232,-0.017087981681503,-0.0442944605648301,0.010000000000001563
8.47,0.2365537582948532,0.1083758242701934,9.668524860104895,0.0163237093703965,-0.0173336999189256,-0.044409880619316,0.009999999999999787
8.48,0.2400701698172016,0.1100523057260557,9.66755626833774,0.016207337118227,-0.017577684800801,-0.0445241904290994,0.009999999999999787
