timestamp,ax,ay,az,gx,gy,gz,gt_x,gt_y,gt_z,gt_vx,gt_vy,gt_vz,gt_ax,gt_ay,gt_az
0.0,0.02414151239263294,0.041753501811152074,9.808706373086041,0.003181324457158381,-0.002112497762386592,-0.00505713805933598,0.0,0.0,0.0,0.0,0.0,0.0,0.0,0.045,0.0
0.01,-0.015940323327182843,0.03339966050760765,9.81980708518805,0.007897970844337618,0.0048477465696745905,-0.00017698734395637389,4.319999300991806e-09,2.2499995782077065e-06,0.0,1.2959996500860884e-06,0.00044999983125001893,0.0,0.00025919986003202265,0.044999949375009486,0.0
0.02,0.038031934754450436,0.060921106282378776,9.780777321677075,-0.003343956000735742,-0.0021632508230153068,-0.006611829373796552,3.455997760540286e-08,8.999993249991789e-06,0.0,5.183994401303238e-06,0.0008999986500006075,0.0,0.0005183988802567256,0.04499979750015187,0.0
0.03,0.04399453771260592,0.05320153969812065,9.776367393148991,-0.00272726578264446,0.0017748497625168771,-0.0033967820374181737,1.1663982994042366e-07,2.0249965828167404e-05,0.0,1.1663971656528105e-05,0.0013499954437546132,0.0,0.0007775962208695098,0.04499954437576886,0.0
0.04,-0.04249426461754387,-0.05457548602086771,9.823468933470139,-0.0010443338293630517,-0.0006270222061726499,-0.0009809625166139553,2.7647928336343996e-07,3.599989200009368e-05,0.0,2.0735910420643934e-05,0.00179998920001944,0.0,0.001036791042071219,0.044999190002429995,0.0
0.05,-0.022769402701798686,0.051356000513786304,9.79526658298055,0.001456079606584447,0.00022223364429548243,-0.0018094380194453156,5.399978130066208e-07,5.6249736328561895e-05,0.0,3.239978130062937e-05,0.002249978906309326,0.0,0.0012959825040708586,0.044998734380932603,0.0
0.06,0.020390381862106878,0.004893795227179327,9.774424648489791,0.0004850888381142761,0.00046518405305486096,0.003994518572164548,9.33114558065995e-07,8.099945325157343e-05,0.0,4.665554650546966e-05,0.002699963550147622,0.0,0.0015551697670883186,0.04499817751230184,0.0
0.07,0.007327074221049626,-0.007654342845670313,9.846960238769421,0.003021539939835453,-0.002228533784157393,-0.0032691689563470925,1.4817482378373659e-06,0.00011024898708189568,0.0,6.35031598465119e-05,0.0031499421190690695,0.0,0.001814351991357094,0.044997519397790654,0.0
0.08,0.016569493611998342,0.0293425577276729,9.799046159812187,-0.005625932711075711,-0.0061481075643973395,-0.011869952301857667,2.211817067748756e-06,0.00014399827200839432,0.0,8.294256673755385e-05,0.003599913600622078,0.0,0.0020735283371270045,0.04499676003887981,0.0
0.09,-0.008258619862540485,0.047325032708178214,9.852494348115961,0.0019842684464827453,0.0038306587278685174,-0.007888930154266206,3.149238675406729e-06,0.0001822472320949231,0.0,0.00010497370419493279,0.004049876982371003,0.0,0.0023326979646669166,0.044995899437277866,0.0
0.1,0.04397379928015232,-0.01422710071368357,9.818854123733283,-0.0037110769011282703,0.007967733960960278,0.0005108193265439553,4.319930016566387e-06,0.0002249957812816561,0.0,0.00012959650083779194,0.004499831251898427,0.0,0.0025918600342674635,0.04499493759492116,0.0
0.11,0.04118477176911221,0.056131167025700396,9.82684276586166,-0.0007166695102778929,0.008296077049870117,-0.002274136133511388,5.749807291136055e-06,0.0002722438233841995,0.0,0.00015681087688825814,0.004949775396807432,0.0,0.0028510137062437674,0.04499387451397385,0.0
0.12,0.020091079067774638,0.05789287562277587,9.811655007617095,0.008540068136281031,-0.002766349555339892,-0.005463514169713101,7.464785859362388e-06,0.0003239912520944799,0.0,0.00018661674417170816,0.0053997084047238825,0.0,0.0031101581409381566,0.04499271019682787,0.0
0.13,0.05218652870776388,0.03640073053508786,9.738345132663628,-0.006991214043830043,-0.0036658537898533582,0.010572058930483618,9.490780157703216e-06,0.0003802379509807441,0.0,0.00021901400611730183,0.005849629263298702,0.0,0.0033692924987228905,0.044991444646102934,0.0
0.14,0.032653696207564246,0.008961368957835052,9.783896405268388,-0.0013973373421968533,-0.0027714122391766373,0.004983503668712731,1.1853703614950195e-05,0.00044098379348822547,0.0,0.0002540025577578042,0.0062995369602101454,0.0,0.0036284159400028757,0.04499007786464651,0.0
0.15,-0.006891246261278759,0.005607269729855126,9.814228716208438,-0.006373228861553124,-0.0008791870107189575,0.0006075604800369326,1.4579468568212683e-05,0.0005062286429384777,0.0,0.000291582285730474,0.006749430483166085,0.0,0.003887527625218389,0.044988609855533886,0.0
0.16,0.030209150237322763,0.06576500456947487,9.828941874118781,0.0007653398727588631,-0.00026230482063152583,0.002126117614961009,1.7693986179068144e-05,0.000575972352530929,0.0,0.00033175306827688545,0.007199308819906287,0.0,0.004146626714847798,0.044987040622068056,0.0
0.17,-0.009360765655459687,-0.010351310427097339,9.764309779328356,0.005241164576950088,-0.004989642291286521,-0.00030614716753427323,2.122316634942112e-05,0.0006502147653417722,0.0,0.00037451477524381717,0.00764917095820468,0.0,0.004405712369410278,0.04498537016777981,0.0
0.18,0.04601829278868671,0.06691771232100302,9.816391948764187,0.0008482755942213483,-0.0073986792327270234,-0.005189601026954042,2.5192917637750778e-05,0.0007289557143261849,0.0,0.00041986726808342925,0.008099015885871644,0.0,0.0046647837494685354,0.04498359849642766,0.0
0.19,0.018426062686043937,0.030025750838084765,9.784332077383578,-0.0005835792666783151,0.0002497115325369882,0.006292984222228336,2.9629147175136428e-05,0.0008121950223167751,0.0,0.00046781039985352993,0.008548842590756282,0.0,0.004923840015631525,0.04498172561199787,0.0
0.2,0.014637009422199355,0.03210471652941872,9.82503860495269,0.006642011645260261,-0.01765204550448271,0.005455930535133551,3.455776058114424e-05,0.0008999325020249138,0.0,0.0005183440152185526,0.008998650060748698,0.0,0.005182880328557171,0.04497975151870444,0.0
0.21,1.401751683684574e-05,-0.016264954941410698,9.817417976429004,0.0016525121738607228,-0.0005032840965790476,-0.008627502239969598,4.00046618800054e-05,0.000992167956041845,0.0,0.0005714679504496445,0.009448437283782272,0.0,0.005441903848955087,0.044977676220989055,0.0
0.22,0.0573771498978102,0.030574000819663556,9.840305048072887,0.004097830281559053,-0.004723738042055326,0.0024512043992792236,4.599575341687756e-05,0.0010889011768373535,0.0,0.0006271820334251111,0.009898203247835946,0.0,0.005700909737589293,0.044975499723521155,0.0
0.23,0.01632401269321687,0.05338078751153913,9.850004687905626,0.003576286934225674,0.0039007726330642085,0.0030630663585301575,5.255693577355114e-05,0.0011901319467619853,0.0,0.0006854860836315702,0.010347946940936487,0.0,0.005959897155280937,0.04497322203119786,0.0
0.24,0.008369030598017793,-0.005121459486415479,9.83176969697822,-0.014381202020783806,0.00523817438552573,-0.00016989998183324236,5.971410768484953e-05,0.0012958600380463814,0.0,0.0007463799121638637,0.010797667351160774,0.0,0.00621886526291101,0.04497084314914396,0.0
0.25,0.010913806706776186,0.0499274391002673,9.843811807669116,-0.00038334402810474247,0.0053562288012396694,0.011984920838612013,6.74931659545297e-05,0.0014060852128026102,0.0,0.0008098633217260343,0.011247363466638079,0.0,0.006477813221423073,0.04496836308271194,0.0
0.26,0.03770601575842643,0.03763614944785264,9.807489725722284,-0.005390372344406762,-0.001732234406453188,0.01150214197242325,7.592000537143262e-05,0.0015208072230239456,0.0,0.0008759361066319471,0.011697034275552328,0.0,0.0067367401918259654,0.04496578183748196,0.0
0.27,0.032958967266118876,0.015650431004292607,9.902693522338014,-0.004146584470784309,-0.005675720059817055,-0.00026931071519772074,8.502051862563365e-05,0.0016400258105859766,0.0,0.0009445980528058229,0.012146678766144394,0.0,0.006995645335196529,0.04496309941926181,0.0
0.28,0.03463650616056198,0.06060050842882607,9.781435427105153,0.007372930536626466,-0.004072961584333093,0.0005639289644323421,9.482059622450967e-05,0.0017637407072468303,0.0,0.0010158489377829483,0.012596295926714357,0.0,0.007254527812682326,0.044960315834086946,0.0
0.29,0.03543801687574084,-0.031110271981136264,9.80216732666272,-0.0018740277266129605,0.0014380534159069997,3.645366350587143e-05,0.00010534612640872298,0.0018919516346480592,0.0,0.0010896885307105642,0.013045884745623801,0.0,0.0075133867855043555,0.044957431088220416,0.0
0.3,0.0870216494410736,0.045354867650464176,9.845040757482407,0.009462840979030038,-0.008229322375205952,-0.0012590908812762584,0.00011662299506864926,0.0020246583043150856,0.0,0.0011661165923484873,0.01349544421129807,0.0,0.007772221414959775,0.044954445188152906,0.0
0.31,0.010838580370886138,0.08353441288280145,9.84058163914583,-0.007038442101354278,0.006967747447320183,-0.0027464825935603595,0.00012867708566025038,0.0021618604176583123,0.0,0.001245132875069821,0.013944973312228557,0.0,0.008031030862424607,0.044951358140602686,0.0
0.32,0.007922532417210349,0.07814646412553547,9.83262167057427,-0.00541835390138684,-0.0016531501589866673,0.004451337797115964,0.00014153427912122485,0.0023035576659724555,0.0,0.001326737122861843,0.014394471036974978,0.0,0.00828981428935647,0.04494816995251562,0.0
0.33,-0.000864610990139042,0.04663908224722079,9.838259559739793,0.0038117533047598517,0.0025008683622146726,0.011783974438241406,0.00015522045378729699,0.00244974973043921,0.0,0.001410929071326894,0.014843936374167635,0.0,0.00854857085729729,0.044944880631065116,0.0
0.34,0.04228668240514087,0.025891066899726776,9.755493285361819,-0.001706857598792543,-0.008907130568684205,0.009786873929155478,0.00016976148530833957,0.0026004362821263616,0.0,0.0014977084476832658,0.015293368312509712,0.0,0.008807299727876009,0.04494149018365216,0.0
0.35000000000000003,0.05793516884443806,0.015863921921476315,9.865678960836135,0.0015366366830052486,-0.004629910128791748,0.006042028351112506,0.0001851832465643577,0.0027556169819891174,0.0,0.0015870749707656451,0.01574276584077954,0.0,0.009066000062811315,0.04493799861790524,0.0
0.36,0.020906247294268095,0.025846632124511132,9.811883271234,-0.0005615341318487509,-0.009528395728281897,-0.009879756181643055,0.00020151160758180575,0.0029152914808712183,0.0,0.0016790283510267124,0.016192127947832865,0.0,0.009324671023914348,0.0449344059416804,0.0
0.37,-0.0006213825357844205,0.051244929600598316,9.855376825468126,-0.0007128811898300385,0.005105947469005761,-0.007107303379354946,0.0002187724354499876,0.0030794594195049374,0.0,0.0017735682905374974,0.01664145362260514,0.0,0.00958331177309142,0.04493071216306114,0.0
0.38,0.00010748500160954327,0.010709603126575984,9.756994202630962,-0.0015211803436603816,-0.0008010236993750982,0.007595881260507718,0.0002369915942366796,0.0032481204285124132,0.0,0.0018706944829887107,0.017090741854113783,0.0,0.009841921472346731,0.04492691729035847,0.0
0.39,0.04461828291852611,0.057645735873622275,9.825697055104435,0.0008974668020386838,0.00285652476718118,0.01043153218253342,0.00025619494490491945,0.0034212741284065373,0.0,0.001970406613691722,0.017539991631460465,0.0,0.010100499283785081,0.04492302133211085,0.0
0.4,0.047656669505717855,0.0989138398371839,9.801094931625654,0.0032081914376395145,0.00031706841165037844,0.005162917265892273,0.00027640834522879576,0.0035989201295916207,0.0,0.0020727043595790916,0.01798920194383338,0.0,0.010359044369614588,0.044919024297084185,0.0
0.41000000000000003,0.04191218394130525,0.03305842914044995,9.83516360454744,0.008072110754862381,0.0023423752695618015,0.0009259002252350198,0.0002976576497099037,0.0037810580323642817,0.0,0.002177587389206348,0.018438371780509506,0.0,0.0106175558921494,0.0449149261942718,0.0
0.42,0.005910741795151581,-0.005421117065604733,9.827512113574064,-0.0010125626767140887,-0.0016872093020426332,0.009274842417974546,0.0003199687094934678,0.003967687426914113,0.0,0.0022850553627525197,0.018887500130856907,0.0,0.010876033013812412,0.04491072703289443,0.0
0.43,0.03309931458913956,-0.005435915567092206,9.828981433924975,-0.0019681914781793782,-0.0010177279473695322,0.0063408191808780445,0.00034336737228490843,0.004158807893325234,0.0,0.0023951079320214674,0.019336585984336983,0.0,0.011134474897137968,0.04490642682240018,0.0
0.44,0.029893454978996446,0.058198992123811785,9.786231749353055,-0.002612307782295661,-0.0004586620940462111,0.008319566520003674,0.0003678794822654097,0.004354419001576515,0.0,0.0025077447404429523,0.019785628330506747,0.0,0.0113928807047746,0.044902025572464525,0.0
0.45,0.03321190750135811,0.03310513792417697,9.81629092637544,0.007348919275162494,0.0020281582746361415,-0.006591039316160835,0.00039353088000870784,0.004554520311543131,0.0,0.0026229654230738755,0.020234626159021118,0.0,0.011651249599487719,0.04489752329299028,0.0
0.46,0.05305244408260802,0.06119784687602915,9.81259498856212,0.0034516244855690896,0.0021605921060901387,0.004467947657877837,0.0004203474023974363,0.004759111372997227,0.0,0.0027407696065992583,0.020683578459635168,0.0,0.011909580744162323,0.044892919994107564,0.0
0.47000000000000003,0.0338757397650462,0.018879188211393307,9.832859301251222,-0.009495167132190853,0.01405718442003672,0.01168352094974403,0.0004483548825389705,0.004968191725609028,0.0,0.0028611569093336623,0.021132484222206406,0.0,0.012167873301805738,0.044888215686173794,0.0
0.48,0.04779353332770714,0.05980211680596862,9.847678909863003,-0.00971560351398191,0.008408010636898033,0.005507299186799081,0.0004775791496822168,0.005181760898947729,0.0,0.002984126941222343,0.02158134243669706,0.0,0.012426126435550295,0.044883410379773676,0.0
0.49,0.02971171139332282,0.030129528882227367,9.822514277660257,-0.0041502893974904274,-0.008893793929448186,0.007670646682476636,0.0005080460291334576,0.005399818412482826,0.0,0.0031096793038424943,0.022030152093176335,0.0,0.012684339308656076,0.04487850408571913,0.0
0.5,0.03661609304521311,0.012898375155330856,9.779714831348342,0.0011507272202718733,-0.0007155273896362768,0.003170627201998633,0.0005397813421731401,0.005622363775585004,0.0,0.0032378135904045815,0.022478912181822703,0.0,0.012942511084513589,0.04487349681504933,0.0
0.51,0.04713928770180272,0.022838434214959097,9.821227364287003,-0.00016735069609345282,-0.0020294792013274853,0.0035784509872027405,0.0005728109059718323,0.0058493964875274695,0.0,0.0033685293857536715,0.02292762169292614,0.0,0.013200640926646513,0.04486838857903063,0.0
0.52,-0.01525594659695561,-0.0010484512735405363,9.896332286852278,0.0025738927592184042,0.006400652404049999,0.010119998381213215,0.0006071605335066788,0.006080916037486395,0.0,0.003501826266370589,0.023376279616890438,0.0,0.013458727998714384,0.04486317938915656,0.0
0.53,0.01912663497379627,0.09453865601459611,9.867380159809633,-0.0008772172109163995,-0.0015787398130060796,-0.00018232374580831818,0.0006428560334780786,0.006316921904543138,0.0,0.003637703800373693,0.02382488494423546,0.0,0.013716771464515309,0.04485786925714778,0.0
0.54,0.01486359085920483,0.03196100378819748,9.728768013117268,0.006987093856894713,0.0023214443872333276,-0.0006123487667311777,0.0006799232102255304,0.006557413557684688,0.0,0.003776161547519852,0.024273436665599415,0.0,0.013974770487988694,0.044852458194952094,0.0
0.55,0.010066388785917663,0.054182368875210274,9.819900294610845,0.0038605568938700793,-0.011685308151400597,0.0008939764959526655,0.0007183878636445318,0.006802390455804552,0.0,0.003917199059205956,0.024721933771741107,0.0,0.014232724233217918,0.044846946214744395,0.0
0.56,0.021236364327632568,0.01873525934280265,9.84596358575766,0.0003878830355784303,-0.007568004056966394,0.0034614488620021465,0.000758275789102536,0.007051852047704976,0.0,0.00406081587847078,0.025170375253542245,0.0,0.014490631864433078,0.04484133332892663,0.0
0.5700000000000001,0.07459673188304555,0.003277784890733111,9.81253018962296,0.005726697152670526,0.010461465895512303,-0.0046470875751042275,0.0007996127773557404,0.007305797772097611,0.0,0.004207011539995875,0.02561876010200968,0.0,0.014748492546013674,0.044835619550127805,0.0
0.58,0.004031371971694023,0.027813389563665837,9.804197272395683,-0.008244531121576104,0.00025122199104123496,0.0071177611351933845,0.0008424246144653202,0.0075642270576044,0.0,0.00435578557010734,0.026067087308277687,0.0,0.01500630544249132,0.044829804891203896,0.0
0.59,0.059312420356296885,0.06785966536661386,9.809991073547495,-0.0004253735633261194,-0.004992300117345094,0.002700310392484596,0.0008867370817139952,0.007827139322760024,0.0,0.004507137486777601,0.026515355863610254,0.0,0.015264069718552464,0.0448238893652379,0.0
0.6,-0.019964308609433067,0.01919591924359123,9.834565684563039,0.0006875615306399262,0.0012143543561126929,0.007849037769071029,0.0009325759555223745,0.008094533976011453,0.0,0.004661066799626479,0.02696356475940331,0.0,0.015521784539041074,0.04481787298553974,0.0
0.61,0.020732898169388107,0.008695796583763807,9.783545900768749,0.003010182499762547,-0.005265294767262575,-0.006955743743748105,0.0009799670073656341,0.008366410415721282,0.0,0.004817573009923227,0.027411712987187038,0.0,0.01577944906896135,0.04481175576564627,0.0
0.62,0.035919654426630615,0.03946946505039553,9.85366065954828,-0.008575830014143103,-0.0014168677094784155,0.007986202685256537,0.0010289360036896955,0.008642768030167503,0.0,0.004976655610587688,0.02785979953862811,0.0,0.01603706247348045,0.04480553771932123,0.0
0.63,0.04888129385870951,0.04976989688208755,9.816320210249058,-0.001302034534372408,-0.007263089696220074,0.010442010649277866,0.0010795087058280695,0.008923606197545286,0.0,0.00513831408619252,0.028307823405531972,0.0,0.01629462391793117,0.044799218860555226,0.0
0.64,0.05288892996160029,0.08407824426916118,9.789949271776653,0.0020023039817553723,-0.003943606088967153,0.00600918965840329,0.0011317108699183676,0.009208924285969422,0.0,0.005302547912964428,0.02875578357984511,0.0,0.016552132567814643,0.044792799203565686,0.0
0.65,0.05561000464480083,0.04539879311397168,9.85173050484196,0.0023858106319866795,-0.0020816834472931352,0.004025425640087982,0.0011855682468184803,0.009498721653473874,0.0,0.0054693565587858655,0.02920367905365733,0.0,0.01680958758880308,0.04478627876279684,0.0
0.66,0.021605235979289303,0.05409943790885671,9.77164607284665,0.005930649207271006,0.0056034965716835585,0.00826019252883635,0.0012411065820235878,0.00979299764801489,0.0,0.005638739483196976,0.029651508819203996,0.0,0.017066988146742432,0.04477965755291966,0.0
0.67,0.018453779627718107,0.05635119269644153,9.801343697089951,0.003807526662033725,0.0023202300384157987,0.010350127251202598,0.0012983516155826713,0.010091751607471666,0.0,0.005810696137397198,0.03009927186886833,0.0,0.017324333407655122,0.044772935588831886,0.0
0.68,0.05832089897545734,0.00017565142767900915,9.800849748041445,-0.0003042302468602056,0.0031926201797104676,0.006666392785214358,0.00135732908201458,0.010394982859647905,0.0,0.00598522596424731,0.030546967195183652,0.0,0.017581622537742727,0.04476611288565792,0.0
0.6900000000000001,0.027099724956940234,0.005859227344662519,9.882318258147084,0.0033748687447437736,-0.00012887325681990074,0.007098703373580985,0.0014180647102257637,0.010702690722273145,0.0,0.006162328398270578,0.030994593790835676,0.0,0.017838854703388685,0.04475918945874885,0.0
0.7000000000000001,-0.00517456062897665,0.002235276635512873,9.797449376940817,-0.0010068181777731625,0.004114245491847928,0.012453907367753456,0.0014805842234255628,0.011014874503005201,0.0,0.006342002865655428,0.03144215064866475,0.0,0.01809602907116101,0.04475216532368238,0.0
0.71,-0.000645471612289443,-0.00521933217448655,9.753351043384997,0.000733869763814264,-0.004367596346716204,0.008033645930639675,0.0015449133390438297,0.01133153349943039,0.0,0.0065242487842567705,0.03188963676166812,0.0,0.018353144807814976,0.044745040496262815,0.0
0.72,0.006026632500247479,0.05860161123863311,9.800545546541626,0.0039740117507368125,-0.0036635297249083577,0.0002851902935665932,0.0016110777686474398,0.011652666999066197,0.0,0.006709065563597872,0.03233705112300224,0.0,0.01861020108029582,0.04473781499252101,0.0
0.73,0.048782019377354366,0.043431991578627,9.831666510422142,-0.00022650396594021252,0.002037955357284398,0.010678281843125676,0.0016791032178564702,0.0119782742793626,0.0,0.006896452604872483,0.03278439272598496,0.0,0.01886719705574145,0.04473048882871434,0.0
0.74,0.03839690398360207,0.03710794391407017,9.841522536397507,0.0018099483976591877,-0.0013957369501358824,0.0037850131551871104,0.0017490153862618207,0.012308354607702965,0.0,0.007086409300946972,0.0332316605640979,0.0,0.019124131901485115,0.044723062021326684,0.0
0.75,0.05509556540709119,-0.04306596087499972,9.886296190803282,0.004806543846585063,-6.922924181415268e-05,0.004628542285648815,0.001820839967340948,0.012642907241407153,0.0,0.007278935036361656,0.03367885363098857,0.0,0.019381004785058154,0.04471553458706834,0.0
0.76,0.021820235484096617,0.09637221230143458,9.860206927129576,0.003560824303695265,-0.0008206763895729764,0.005054996858888208,0.0018946026483751544,0.012981931427731297,0.0,0.007474029187333287,0.03412597092047279,0.0,0.019637814874192645,0.04470790654287604,0.0
0.77,0.03965075206912554,0.00787201778130621,9.823637677817453,0.006167359279406848,0.006267252072807388,0.009423360853862639,0.001970329110366764,0.013325426403871798,0.0,0.007671691121757096,0.03457301142653683,0.0,0.01989456133682412,0.04470017790591288,0.0
0.78,0.053918955160114364,0.09624673137173702,9.791257535972756,0.011642241489764553,0.006527764663394363,0.013381671636514918,0.002048045027954748,0.013673391396964663,0.0,0.00787192019920857,0.03501997414333975,0.0,0.020151243341094267,0.04469234869356829,0.0
0.79,0.026127463863746467,-0.008792825496081479,9.86672082294042,0.003514638866784717,-0.0031308288028187377,0.004817858154815029,0.0021277760693327874,0.014025825624088828,0.0,0.008074715770945585,0.03546685806521562,0.0,0.020407860055353617,0.044684418923458,0.0
0.8,0.04936766777488659,0.010304353856727875,9.806943093490213,-0.0023064627570237735,-0.008799346734453659,0.013410363079105116,0.0022095478961653425,0.0143827282922675,0.0,0.008280077179910795,0.035913662186675806,0.0,0.020664410648164246,0.04467638861342398,0.0
0.81,0.01606311605630291,-0.03141722369375447,9.798255282913562,0.0025591152390990034,-0.0035574845044382035,0.00563525289024599,0.002293386163504718,0.014744098598469924,0.0,0.008488003760733331,0.03636038550241122,0.0,0.02092089428830245,0.04466825778153442,0.0
0.8200000000000001,0.025285694747809305,0.04552377572436463,9.805487785935378,0.0023440920824520867,-0.00448480073283979,0.01188136653208893,0.00237931651970813,0.015109935729612944,0.0,0.008698494839731197,0.036807027007294595,0.0,0.021177310144761458,0.04466002644608371,0.0
0.8300000000000001,0.02498152056680425,0.0016139900012553596,9.780431352833096,0.003067553467551908,0.004158741703995369,0.005920863823517168,0.0024673646063543275,0.015480238862563,0.0,0.00891154973491357,0.037253585696382735,0.0,0.021433657386754124,0.044651694625592334,0.0
0.84,0.0008147458160444182,0.0024532577158562496,9.80404939726487,0.007475081236186859,0.004602487383872291,0.0025247074776792874,0.0025575560581602153,0.015855007164138568,0.0,0.009127167755982856,0.03770006056491877,0.0,0.02168993518371561,0.04464326233880688,0.0
0.85,0.05155531712887352,-0.006540696910531926,9.811006750100647,-0.008420557544920033,-0.005155370915189891,0.014655403511521326,0.00264991650289903,0.01623423979111105,0.0,0.009345348204336634,0.038146450608334444,0.0,0.02194614270530607,0.044634729604699996,0.0
0.86,0.023120208915331654,0.05794674832460623,9.839919698174363,0.007569189956648671,-0.003772523792774245,0.002163521187367493,0.0027444715613158532,0.016617935890206992,0.0,0.00956609037307068,0.03859275482225234,0.0,0.022202279121413367,0.04462609644247034,0.0
0.87,0.03783316716398635,0.05596127241856892,9.80635734994697,0.009252084340290564,-0.0073950554362755255,0.0018868908725351236,0.0028412468470453422,0.017006094598110533,0.0,0.009789393546980385,0.03903897220248816,0.0,0.02245834360215573,0.04461736287154251,0.0
0.88,0.05213673508506174,0.08896954564393061,9.779976222744844,0.0028403533163510733,0.0006718926176137992,-0.001061320580624238,0.002940267966528576,0.017398715041464508,0.0,0.010015257002563694,0.03948510174505301,0.0,0.02271433531788447,0.044608528911567046,0.0
0.89,0.05136618872008498,0.014028395950231146,9.769886835342298,0.002960675406115665,-0.00022458213708704763,0.011613116156934517,0.003041560518930342,0.017795796336873337,0.0,0.010243680008023226,0.03993114244615558,0.0,0.022970253439186655,0.04459959458242035,0.0
0.9,0.05818765040607137,0.04115514103560867,9.824287092425694,-0.0012082240362974942,0.003945609087194638,0.012851865230943248,0.003145150096055982,0.01819733759090414,0.0,0.010474661823268772,0.04037709330220449,0.0,0.023226097136887787,0.04459055990420466,0.0
0.91,0.035527301046771806,-0.004098631024810555,9.820178775604075,3.1619949083525044e-05,0.002485656472797162,0.007258080101775069,0.0032510622822681245,0.018603337900089167,0.0,0.010708201699919241,0.04082295330981051,0.0,0.023481865582054513,0.04458142489724799,0.0
0.92,0.02603860858467269,0.024521018900044572,9.801370618663604,0.00348976079574076,0.0030510148552809076,0.0005308188442074147,0.0033593226544044175,0.019013796350928258,0.0,0.010944298881305681,0.041268721465788805,0.0,0.023737557945997297,0.04457218958210411,0.0
0.93,0.03660162707308113,0.01899749458111715,9.803976306185238,0.0031677619638516216,-0.00771001019892869,0.005473995173488701,0.003469956781694483,0.019428712019889716,0.0,0.011182952602473595,0.04171439676716121,0.0,0.0239931734002731,0.04456285397955248,0.0
0.9400000000000001,-0.011371321902052811,0.04848691683546082,9.829654607983974,0.0036035486500169372,-0.0031316301829612874,0.004052447353923785,0.003582990225676541,0.019848083973413422,0.0,0.011424162090184976,0.04215997821115849,0.0,0.024248711116688082,0.044553418110598195,0.0
0.9500000000000001,-0.003909203905392358,0.06505453618901769,9.85971638761068,0.0031333428580164182,0.004744486523716018,0.00047080604048587923,0.0036984485401156952,0.020271911267913056,0.0,0.011667926562921328,0.04260546479522258,0.0,0.024504170267300254,0.044543881996471954,0.0
0.96,7.856165379012403e-05,0.064266246383575,9.79459566247568,0.004491949870711849,-0.0026928805923132227,0.003236245518613731,0.003816357270920001,0.020700192949776985,0.0,0.011914245230885979,0.043050855517008844,0.0,0.024759550024422188,0.04453424565863002,0.0
0.97,0.010097444732579262,0.00924014095222581,9.820667085086463,0.003933243349928238,-0.008137829372345211,0.008266884773375989,0.003936741956058198,0.021132928055371814,0.0,0.012163117296006654,0.04349614937438837,0.0,0.025014849560623713,0.044524509118754135,0.0
0.98,0.05226329485043764,0.0644687095374415,9.84674811212016,-0.005121743326300658,0.0040399478993582835,0.002769813919499897,0.0040596281254769995,0.021570115611043716,0.0,0.012414541951938052,0.04394134536545014,0.0,0.025270068048734544,0.044514672398751516,0.0
0.99,0.013360833001045173,0.03318218140752087,9.794716571294082,0.0041613402175394,-0.0028863249750720344,0.007311726848816298,0.004185041301018599,0.02201175463312066,0.0,0.012668518384064598,0.044386442488503396,0.0,0.025525204661846997,0.04450473552075478,0.0
1.0,0.029435381952136994,0.02475679163021145,9.8175310365631,0.009292933082081137,0.0053131849681343915,-0.002971206865479882,0.0043130069963369655,0.022457844127915516,0.0,0.012925045769502841,0.044831439742079766,0.0,0.02578025857331868,0.0444946985071219,0.0
1.01,0.08001207789035711,0.0132292167758686,9.81686013190737,-0.00013313375977701158,-9.20736042015569e-05,0.014363602928779588,0.004443550716816791,0.022908383091726492,0.0,0.013184123277104299,0.04527633612493563,0.0,0.026035228956775135,0.044484561380436154,0.0
1.02,0.030602195854269765,0.0176762503326595,9.778661142948694,0.0074973997399123875,-0.001386097214505388,0.004067879544489868,0.004576697959489229,0.023363370510841586,0.0,0.013445750067457941,0.04572113063605431,0.0,0.026290114986112546,0.044474324163506065,0.0
1.03,0.063670382889513,0.08673340226525236,9.823054963842969,-0.004586476499557956,0.006815954455616836,0.01043336742992955,0.004712474212950402,0.023822805361539245,0.0,0.0137099252928933,0.046165822274648355,0.0,0.026544915835500404,0.04446398687936536,0.0
1.04,0.013791100279087868,0.04367587254609366,9.818946340358133,-0.00014881309805217565,-0.006513278095685852,0.0070826789511105655,0.004850904957278468,0.024286686610091035,0.0,0.01397664809748287,0.04661041004016176,0.0,0.02679963067938418,0.04445354955127295,0.0
1.05,0.03589113195645909,0.039681367627748945,9.834652527487881,-0.0032057907590492918,0.007171105898155446,0.00820882001231957,0.0049920156639509106,0.0247550132127643,0.0,0.014245917617045035,0.04705489293227224,0.0,0.02705425869248799,0.0444430122027128,0.0
1.06,0.013808137402499868,0.026564969101285533,9.782393405760178,0.006896106262118995,-0.0031967799777296137,0.0005934272708699355,0.005135831795762158,0.025227784115824825,0.0,0.014517732979146736,0.047499269950893465,0.0,0.027308799049817305,0.04443237485739394,0.0
1.07,0.03239225864964472,0.10780099588239125,9.818299111557836,0.008202382772044256,0.0008118493015800499,0.002507517850920992,0.005282378806740984,0.025704998255537737,0.0,0.014792093303106402,0.047943540096177344,0.0,0.02756325092666159,0.0444216375392504,0.0
1.08,0.06802685762231886,0.07356111493783388,9.859452021909673,-0.0004959806004378109,0.0008591009771279028,0.00267795244247386,0.005431682142068239,0.02618665455817193,0.0,0.015068997699996879,0.04838770236851623,0.0,0.02781761349859699,0.04441080027244113,0.0
1.09,-0.008747726754281475,0.012767999637386212,9.880324994957368,0.005855307613309255,-0.002135599117812478,0.006550806078782632,0.005583767237994364,0.026672751940000294,0.0,0.015348445272648182,0.0488317557685452,0.0,0.028071885941488982,0.044399863081349994,0.0
1.1,0.056358776737870805,0.026180374349446922,9.856403878069148,0.008253133139516668,-0.003810563450384702,0.013111638470419178,0.005738659521756673,0.027163289307304606,0.0,0.015630435115650345,0.049275699297144294,0.0,0.028326067431495083,0.04438882599058565,0.0
1.11,0.05071222521503582,0.027950352723854238,9.782687854830492,-0.00016459428980834703,-0.001849110944825697,0.00870386805887146,0.005896384411497313,0.027658265556375516,0.0,0.015914966315356605,0.04971953195544075,0.0,0.028580157145067488,0.04437768902498155,0.0
1.12,0.026009655588051916,0.03874261155807385,9.83153158046131,0.0006487580589849179,-0.005072813418963996,0.0020925664522527176,0.0060569673161807724,0.028157679573517003,0.0,0.016202037949886085,0.050163252744811294,0.0,0.028834154258955743,0.04436645220959587,0.0
1.1300000000000001,0.0007063223185557882,0.013318335790768372,9.803505602751166,0.003668076848134919,0.00980980321474015,0.007087553294084606,0.006220433635511502,0.028661530235047472,0.0,0.01649164908912688,0.050606860666884315,0.0,0.029088057950209426,0.04435511556971143,0.0
1.1400000000000001,0.046505752627596875,0.04750817483168657,9.826517017793897,-0.004212689907601422,-0.0024056548534361058,0.006304269490517279,0.006386808759852092,0.029169816407303317,0.0,0.01678379879473928,0.0510503547235422,0.0,0.02934186739618079,0.04434367913083567,0.0
1.1500000000000001,0.028710800502613393,0.07789478687988002,9.794833498826693,0.0005504879760728041,0.005794736272149714,0.005009608040462087,0.006556118070140005,0.029682536946640692,0.0,0.01707848612015841,0.051493733916923475,0.0,0.029595581774527466,0.044332142918700586,0.0
1.16,0.05182948660385618,-0.005088336310862272,9.766595796744431,0.01071393553100969,0.005135864792881571,0.0067432849206388,0.006728386937806197,0.03019969069943884,0.0,0.01737571011059762,0.05193699724942516,0.0,0.02984920026321507,0.04432050695926262,0.0
1.17,0.04575828640622323,0.0004643691659406979,9.807664482839005,-0.002500067601251484,0.0018146486947843135,0.010695299777954841,0.00690364072469285,0.030721276502101658,0.0,0.017675469803051413,0.052380143723704954,0.0,0.030102722040519947,0.04430877127870271,0.0
1.18,0.0934095130246592,0.019802179244506897,9.8396780808983,0.00426913120353257,-0.0006783951703314048,0.0033334188097492398,0.0070819047829707715,0.031247293181061897,0.0,0.017977764226298643,0.05282317234268347,0.0,0.030356146285031742,0.04429693590342611,0.0
1.19,0.038428803351465396,0.021181134056827526,9.826639992664214,0.002619022230685059,0.0009689092354019034,0.005259844217324541,0.007263204455057681,0.031777739552781625,0.0,0.018282592400905708,0.053266082109546496,0.0,0.030609472175656127,0.044285000860062415,0.0
1.2,0.015157774112961493,0.09422694241784338,9.83008843579743,-0.0008188295435147608,0.00286084883627083,0.011956088679965867,0.0074475650735355,0.0323126144237571,0.0,0.01858995333922948,0.053708872027747254,0.0,0.030862698891617444,0.044272966175465465,0.0
1.21,0.05149409466115083,0.06431210847715846,9.824490509689381,0.0011082754645469592,0.0005023423029827441,0.009446420552814581,0.007635011961069305,0.032851916590520114,0.0,0.018899846045420967,0.054151541101008595,0.0,0.03111582561246135,0.04426083187671329,0.0
1.22,0.052968752037210444,0.062578268554656,9.830135824245371,0.008763099622697145,-0.007833744953218173,0.013553223860232708,0.00782557043032428,0.03339564483964086,0.0,0.01921226951542785,0.05459408833332531,0.0,0.03136885151805749,0.04424859799110808,0.0
1.23,0.08739740304581525,0.02630529374077403,9.833885352772601,0.0027679857328965045,-0.009091556581250533,0.014392907067324063,0.008019265783884011,0.03394379794773106,0.0,0.019527222736998518,0.055036512728966314,0.0,0.031621775788602154,0.044236264546176046,0.0
1.24,0.07192793498205827,0.025634429366063034,9.809759557131361,0.0035490931163063145,0.007544941119058862,0.00046688164270538776,0.008216123314168877,0.034496374681446396,0.0,0.0198447046896848,0.05547881329247689,0.0,0.03187459760462092,0.04422383156966746,0.0
1.25,0.05783344792145662,-0.009339863323405473,9.820486716842588,0.008004311481258781,-0.01317356951607735,0.008766939519772959,0.008416168303353677,0.03505337379748941,0.0,0.020164714344845347,0.055920989028680965,0.0,0.03212731614697134,0.04421129908955649,0.0
1.26,0.0912790173334324,0.05765087397547573,9.87029775124609,-0.001447052184990842,0.0009784257681342585,0.004841464853027878,0.00861942602328547,0.035614794042612585,0.0,0.02048725066564927,0.05636303894268332,0.0,0.032379930596845546,0.04419866713404121,0.0
1.27,0.011969548506087412,0.0489175738758071,9.822260930870033,-0.005234574549189226,-0.001174890072467085,0.0014433836285778654,0.008825921735402975,0.036180634153620383,0.0,0.020812312607079077,0.05680496203987182,0.0,0.03263244013577294,0.04418593573154354,0.0
1.28,0.028692297963130418,0.07275302585105761,9.819276904893616,0.008841736957951396,0.0008040057292704971,0.0035466760933007017,0.009035680690652859,0.036750892857372985,0.0,0.02113989911593439,0.0572467573259197,0.0,0.03288484394562285,0.0441731049107091,0.0
1.29,0.020339862966441385,0.027835283299722242,9.821086535216791,0.0006826089130921538,-0.005699833706170188,0.006044397879067714,0.009248728129409356,0.037325568870788084,0.0,0.021470009130835258,0.05768842380678776,0.0,0.03313714120860713,0.04416017470040726,0.0
1.3,0.03669503701260986,0.029893770743719066,9.811462744450512,0.004468004250745068,0.0017533874396706154,0.006131164876612171,0.009465089281392114,0.037904660900845544,0.0,0.02180264158222549,0.05812996048872658,0.0,0.03338933110728289,0.044147145129730975,0.0
1.31,0.007340828397865817,0.039235382084815834,9.804939321088376,-0.003811645928096802,0.0010300821708753652,0.004624785104726048,0.009684789365583812,0.03848816764458807,0.0,0.022137795392376258,0.058571366378278825,0.0,0.03364141282455508,0.044134016227996765,0.0
1.32,0.06794791394811125,0.06087771528995753,9.824260355730962,0.0019426315262308248,0.013805058736398774,0.007646412880701585,0.009907853590150006,0.03907608778912586,0.0,0.022475469475389434,0.05901264048228143,0.0,0.033893385543679135,0.044120788024744666,0.0
1.33,0.042478567535300486,-0.009999008113186242,9.802828543941224,-0.005484663924309287,0.0006499002325867316,0.020003172724626605,0.010134307152355415,0.03966842001163884,0.0,0.022815662737201328,0.05945378180786784,0.0,0.034145248448263686,0.044107460549738124,0.0
1.34,0.005272811887193397,0.056175717845115186,9.813634552115683,0.00031869919864046294,0.006741175534140695,-0.0008008992904232695,0.010364175238483542,0.04026516297937999,0.0,0.023158374075586075,0.05989478936247028,0.0,0.034397000722273134,0.044094033832963946,0.0
1.35,0.01918126911380408,0.03346564103944734,9.794284558804211,-0.003239615925891398,-0.007493428377240215,0.013566259794020898,0.010597483023755183,0.04086631534967755,0.0,0.023503602380159184,0.06033566215382191,0.0,0.03464864155003033,0.044080507904632256,0.0
1.36,0.05930558553972507,0.0023077647565654807,9.821240354136028,-0.004388271674562758,0.005100476590226901,0.0078436142401416,0.010834255672246274,0.04147187576993905,0.0,0.023851346532381437,0.060776399189959154,0.0,0.034900170116219216,0.04406688279517637,0.0
1.37,0.07529538264271889,-0.028485014044369206,9.83552584832528,-0.0015156133468296176,0.0011313665147842285,0.005801130751208548,0.01107451833680706,0.04208184287765371,0.0,0.02420160540556182,0.06121699947922385,0.0,0.03515158560588745,0.04405315853525279,0.0
1.3800000000000001,0.11030481395520267,0.02994512379939048,9.811642554202672,-0.011466953214841032,0.001348693420140425,-0.0020455581279936845,0.011318296158979058,0.04269621530039602,0.0,0.024554377864862077,0.06165746203026555,0.0,0.03540288720444908,0.044039335155741086,0.0
1.3900000000000001,0.138069948077907,0.07745680218596596,9.75774864689332,-0.005799512188887666,0.001417842717301897,0.01191420367140831,0.011565614268915336,0.043314991655828194,0.0,0.02490966276729969,0.062097785852043695,0.0,0.03565407409768714,0.04402541268774386,0.0
1.4000000000000001,0.06333742847003619,0.08425193116482851,9.835711146321664,0.003912070781301641,0.008531690856548195,0.0009503715745615036,0.011816497785299251,0.04393817055170346,0.0,0.02526745896175191,0.06253796995382988,0.0,0.0359051454717563,0.04401139116258667,0.0
1.41,0.021469956912229624,0.04465855693192082,9.821605515282792,0.001738331947738635,0.0012755223286128618,0.012349427139125275,0.012070971815260734,0.04456575058586987,0.0,0.025627765288959294,0.06297801334521003,0.0,0.036156100513185546,0.04399727061181793,0.0
1.42,-0.012554450013058507,0.09284322098247628,9.788203056499595,-0.005370934734813038,-0.003920610245928853,0.016971286628252077,0.012329061454297241,0.045197730346272724,0.0,0.02599058058152979,0.06341791503608674,0.0,0.03640693840888076,0.04398305106720886,0.0
1.43,0.05968900221644245,0.0326805000720511,9.841198107269697,0.0027393678473253314,-0.0030796901963572286,0.0019052137499469754,0.012590791786191602,0.045834108410957475,0.0,0.026355903663942026,0.06385767403668136,0.0,0.03665765834612738,0.043968732560753454,0.0
1.44,0.027520026653283257,0.06255342167395177,9.776047243978525,-0.004391065360759426,0.00408563746932353,0.014215560904292598,0.012856187882930747,0.0464748833480737,0.0,0.026723733352549673,0.06429728935753634,0.0,0.036908259512593036,0.04395431512466834,0.0
1.45,0.03969802329093959,0.02040287212419991,9.849362228459734,0.003609819352067093,0.0022372772911006455,0.008555404851068631,0.013125274804624887,0.04712005371587846,0.0,0.027094068455584798,0.0647367600095174,0.0,0.03715874109633015,0.04393979879139273,0.0
1.46,0.034046198313984366,0.01848721841506392,9.816279001410583,-0.000578195367309129,-0.007652368310135093,-0.0019884409378614666,0.013398077599425351,0.047769618062738495,0.0,0.027466907773161964,0.06517608500381575,0.0,0.03740910228577861,0.04392518359358838,0.0
1.47,0.04843561567727684,0.013585196057720388,9.74993404773868,-0.0016256157519616355,0.002573209119296526,0.002512795797436544,0.013674621303444212,0.04842357492713423,0.0,0.02784225009728214,0.06561526335195032,0.0,0.0376593422697684,0.04391046956413948,0.0
1.48,0.08488886716115149,-0.027920211677576794,9.823349887617896,-0.00045531811863727326,-0.005411711784033446,0.00948223430433322,0.01395493094067346,0.049081922837663106,0.0,0.02822009421183651,0.06605429406577006,0.0,0.037909460237522175,0.04389565673615258,0.0
1.49,0.05787091240201828,0.07249351294136389,9.80581422895727,0.012797642283328541,0.0021912900988204603,0.010651161018419748,0.014239031522902623,0.04974466031304248,0.0,0.02860043889261048,0.066493176157456,0.0,0.03815945537865795,0.04388074514295654,0.0
1.5,0.04865028177203103,0.014616761643961963,9.801294521245305,-0.0037940075976117533,-0.004027770192592954,0.0007958544042295911,0.014526948049639499,0.05041178586211337,0.0,0.028983282907287578,0.06693190863952363,0.0,0.03840932688319168,0.04386573481810245,0.0
1.51,0.022589461356765556,0.009807462402707624,9.795868227156314,0.0011327933313318936,-0.001407408673371969,0.008911823748725043,0.014818705508027552,0.05108329798384381,0.0,0.029368625015453634,0.06737049052482506,0.0,0.038659073941539904,0.043850625795363515,0.0
1.52,0.003668207403391667,-0.00156373233964522,9.814183526274203,0.003906843547461855,-0.002724042288947304,0.012924986900804273,0.015114328872766203,0.051759195167331296,0.0,0.029756463968600502,0.06780892082655124,0.0,0.038908695744522374,0.04383541810873504,0.0
1.53,0.03956895421116475,0.027689328696345827,9.803444339564985,-0.004812064245444673,0.007594564916176919,0.013853914249962554,0.015413843106028668,0.05243947589180786,0.0,0.030146798510130246,0.06824719855823416,0.0,0.03915819148336468,0.04382011179243432,0.0
1.54,0.05279408382515121,0.08670947619769283,9.762299292704348,-0.00797128918702966,0.002009238751550102,0.00685060662106946,0.015717273157382028,0.053124138626642115,0.0,0.030539627375359313,0.06868532273374912,0.0,0.039407560349700825,0.04380470688090055,0.0
1.55,0.1076946989429724,0.09660256893347631,9.856162036600315,-0.0030054907148108646,0.006305565011536652,0.011160799921695564,0.01602464396370662,0.05381318183134298,0.0,0.030934949291522608,0.06912329236731692,0.0,0.03965680153557591,0.04378920340879478,0.0
1.56,0.058814149877635294,-0.016052404863062683,9.810669270321146,0.0037973160055443395,0.01447606281731441,0.0143842218167048,0.016335980449113663,0.054506603955563726,0.0,0.0313327629777775,0.06956110647350604,0.0,0.03990591423344872,0.04377360141099981,0.0
1.57,0.08463708296688605,0.02312446104333167,9.796041949523651,-0.0017100172586414148,0.0002340267096497011,0.013337832437604258,0.016651307524866876,0.05520440343910482,0.0,0.03173306714520781,0.06999876406723493,0.0,0.04015489763619432,0.04375790092262014,0.0
1.58,0.040424882980932136,0.002711368876170895,9.78414728952364,-0.0011555296568051246,0.007509950931506117,0.013586164595372478,0.016970650089299433,0.05590657871191773,0.0,0.03213586049682853,0.07043626416377421,0.0,0.0404037509371067,0.04374210197898185,0.0
1.59,0.020104160337390653,0.06337633685197815,9.841121962023587,0.0045538482564604,-0.003497278327963984,0.00974985541336654,0.017294033027734912,0.056613128194108464,0.0,0.032541141727589554,0.07087360577874885,0.0,0.04065247332990139,0.043726204615632557,0.0
1.6,0.026947561141746908,0.04230801528715913,9.779047040927104,-0.004031715397474297,0.006274390549646888,0.008762994825616733,0.017621481212405588,0.0573240502959409,0.0,0.03294890952437992,0.07131078792814037,0.0,0.04090106400871806,0.04371020886834133,0.0
1.61,0.03439274023205053,0.01459703495170354,9.82201961905574,-0.0004437765557305814,-0.004037544237146145,0.010649329435046862,0.017953019502372713,0.05803934341784034,0.0,0.03335916256603246,0.07174780962828914,0.0,0.04114952216812313,0.04369411477309859,0.0
1.62,0.12025193897616729,0.035855114783846606,9.800490529943792,-0.007569205206584094,-9.207565769810187e-05,0.005523012427914171,0.018288672743445922,0.05875900595039796,0.0,0.0337718995233276,0.07218466989589652,0.0,0.04139784700311236,0.04367792236611604,0.0
1.6300000000000001,0.03200443733238194,0.019339073041595344,9.80223741018313,0.0016035953036289785,0.002684388284175452,0.014955341368315443,0.01862846576810151,0.05948303627437346,0.0,0.03418711905899805,0.07262136774802708,0.0,0.04164603770911352,0.0436616316838266,0.0
1.6400000000000001,0.08204876959407928,0.08207262559413117,9.784893214070722,0.0011475353728420507,0.003471156150286385,0.00179576944536899,0.018972423395403615,0.0602114327606984,0.0,0.03460481982773276,0.07305790220211085,0.0,0.04189409348198893,0.043645242762884284,0.0
1.6500000000000001,0.030054198175427312,0.050037541090645316,9.79939041702435,0.003977681490836088,-0.00636275821063044,0.0069790814658236625,0.019320570430922723,0.060944193770481325,0.0,0.03502500047618167,0.07349427227594549,0.0,0.042142013518038104,0.04362875564016417,0.0
1.6600000000000001,0.08533698740022767,0.0537068729802554,9.818264371745204,-0.005726280658356931,-0.00433510961928897,0.009372174232533753,0.019672931666655735,0.06168131765501039,0.0,0.03544765964295982,0.0739304769876985,0.0,0.042389797014000356,0.04361217035276226,0.0
1.67,0.06918597215023325,-0.04641203740299145,9.82505936679047,-0.000959437903862084,0.003057250393854478,0.01195445512082421,0.020029531880945806,0.062422802755756734,0.0,0.03587279595865196,0.07436651535590949,0.0,0.04263744316705736,0.04359548693799547,0.0
1.68,0.05318581424509309,0.03157504506853713,9.79443222556151,-0.006392351802290934,-0.0018385828160655002,0.012946283056844919,0.020390395838401076,0.06316864740437977,0.0,0.03630040804581674,0.0748023863994923,0.0,0.0428849511748358,0.043578705433401456,0.0
1.69,0.05690944445134693,0.09605815464850963,9.815271967926877,-0.0012305334307789943,-0.0069867425443068945,0.017156067196306492,0.020755548289816295,0.06391884992272878,0.0,0.03673049451899129,0.07523808913773726,0.0,0.04313232023540995,0.043561825876738604,0.0
1.7,0.03873591868442256,0.07332872040708643,9.844653632929113,0.007408940377206123,-0.00035488367253694645,0.010152305506682538,0.021125013972090434,0.06467340862284887,0.0,0.03716305398469588,0.07567362259031342,0.0,0.043379549547304275,0.0435448483059859,0.0
1.71,0.07200880435395841,-0.021884914818266217,9.768121143291527,-0.001603763779869914,-0.000594857530618856,0.006225936344502529,0.02149881760814809,0.065432321806983,0.0,0.03759808504143827,0.07610898577727065,0.0,0.043626638309496,0.04352777275934288,0.0
1.72,0.04522408131119439,0.02410782429472169,9.817811930792244,-0.006829599121224517,0.0008845749065445148,0.009142914249339919,0.021876983906858438,0.06619558776757706,0.0,0.038035586279718196,0.07654417771904203,0.0,0.043873585721417786,0.04351059927522952,0.0
1.73,0.02235221806994276,-0.0025522560852755047,9.789476481637934,-0.003399396324874081,0.0026462066047364973,0.00832325362632281,0.02225953756295662,0.06696320478728257,0.0,0.03847555628203203,0.0769791974364458,0.0,0.0441203909829602,0.04349332789228614,0.0
1.74,0.021028926064885857,0.08480900546025946,9.786419474836503,-0.008054759167086057,0.00232825679541677,0.01257196294256832,0.022646503256962047,0.06773517113896199,0.0,0.03891799362287723,0.07741404395068781,0.0,0.044367053294474434,0.043475958649373356,0.0
1.75,0.0647912093884384,0.0407868400538492,9.825830345389942,-0.006478864394036097,-0.003840865472542966,0.004689265105437779,0.023037905655098445,0.06851148508569116,0.0,0.03936289686875743,0.07784871628336361,0.0,0.04461357185677481,0.04345849158557195,0.0
1.76,0.10723268356345443,0.01040705994823973,9.801642455939973,0.003354934737477,-0.0020541423435641217,0.009198985737336119,0.023433769409216376,0.06929214488076396,0.0,0.03981026457818624,0.07828321345646061,0.0,0.044859945871141386,0.04344092674018281,0.0
1.77,0.06490592294652574,0.0344480024589505,9.781495906212946,-0.007231416186810518,0.004638943466439135,0.018241227999923317,0.023834119156710187,0.07007714876769633,0.0,0.0402600953016929,0.07871753449236035,0.0,0.04510617453932259,0.043423264152726834,0.0
1.78,0.05679310728024128,-0.04481546200910969,9.8577284957621,0.0015616429517743887,-0.0027159243352152373,0.011078870975119373,0.02423897952043963,0.07086649498022979,0.0,0.0407123875818261,0.0791516784138407,0.0,0.04535225706353775,0.043405503862944825,0.0
1.79,0.06917297683455598,0.000838806807100155,9.845602685429954,0.0001287133794128665,-0.0019754602932953074,0.004966547138382594,0.0246483751086517,0.07166018174233546,0.0,0.041167139953159376,0.079585644244078,0.0,0.045598192646479685,0.043387645910797454,0.0
1.8,0.10002403274252208,0.03446300211125436,9.760030821309224,-0.002657641245466671,-0.007521345401280894,0.008583796747848687,0.025062330514896702,0.07245820726821894,0.0,0.04162435094229533,0.08001943100664934,0.0,0.04584398049131735,0.043369690336465073,0.0
1.81,0.06767109484261401,0.0587218982339474,9.773767156159938,0.0011367499002888836,-0.0001434023505061791,-0.0008307803831330163,0.025480870317953208,0.07326056976232298,0.0,0.042084019067870765,0.08045303772553467,0.0,0.04608961980169832,0.04335163718034773,0.0
1.82,0.04900729285673934,-0.024905937134855193,9.83580371213956,-0.004688307546736277,0.0017263523238027704,0.010091158752211333,0.025904019081745222,0.0740672674193319,0.0,0.04254614284056144,0.08088646342511906,0.0,0.046335109781751455,0.04333348648306503,0.0
1.83,0.09476911093788609,0.021880579054383138,9.809453785008875,0.004204222004135233,-0.009877466092234713,0.018675095668843206,0.026331801355264473,0.07487829842417693,0.0,0.04301072076308668,0.08131970713019486,0.0,0.04658044963608943,0.04331523828545602,0.0
1.84,0.07468833172365973,0.06358746478414379,9.863017239330649,-0.003491701492861656,-0.005351251907965557,0.004554809792337332,0.02676424167249003,0.07569366095203822,0.0,0.043477751330214434,0.08175276786596393,0.0,0.046825638569811326,0.04329689262857914,0.0
1.85,0.10814335554838499,-0.010265150177486047,9.83649009195623,-0.0019318344430344348,-0.007108638677466888,0.0032586316484957724,0.027201364552307705,0.0765133531683504,0.0,0.04394723302876616,0.08218564465803979,0.0,0.047070675788505226,0.043278449553712114,0.0
1.86,0.06781259361490792,0.04013539414587704,9.82698396571562,-0.0025267550269855357,0.003941761185168714,0.007323512445377276,0.02764319449843411,0.07733737322880674,0.0,0.044419164337621365,0.08261833653244983,0.0,0.04731556049825074,0.04325990910235185,0.0
1.87,0.02582622095400664,0.03522050640939446,9.787344119245237,0.003447367822038829,-0.009561756367233581,0.01524724544759978,0.028089755999331834,0.07816571927936189,0.0,0.04489354372772319,0.08305084251563753,0.0,0.047560291905621645,0.04324127131621436,0.0
1.8800000000000001,0.021760093240318433,0.0846539458479327,9.832743208845933,0.0027222195675444968,-0.00039342298556342486,0.0192146071178571,0.028541073528136618,0.07899838945623805,0.0,0.04537036966208277,0.08348316163446463,0.0,0.047804869217688374,0.04322253623723464,0.0
1.8900000000000001,0.11257712960895816,0.026299618114217497,9.779727081357485,-0.013108505829619001,0.0035893107747277464,0.012983139178157195,0.02899717154257231,0.07983538188592765,0.0,0.04584964059578445,0.08391529291621325,0.0,0.04804929164202066,0.04320370390756663,0.0
1.9000000000000001,0.11500353001018897,0.028036756418330935,9.857157336002302,0.0012712146813908954,0.0009391082455967568,0.004363092369126294,0.02945807448487492,0.08067669468519778,0.0,0.046331354975990904,0.08434723538858822,0.0,0.048293558386690055,0.04318477436958305,0.0
1.9100000000000001,0.058152092261794505,0.058814540260816006,9.830664157670547,-0.008722964159127905,-0.002199793317194759,0.010731982027436554,0.029923806781712248,0.08152232596109532,0.0,0.046815511241947855,0.08477898807971913,0.0,0.04853766866027252,0.04316574766587535,0.0
1.92,0.052286002037771354,-0.006643836202226715,9.793255082697272,-0.0017066085609458157,0.0017323419338783517,0.019840601629028485,0.030394392844105056,0.0823722738109498,0.0,0.04730210782498956,0.08521055001816263,0.0,0.04878162167185099,0.04314662383925363,0.0
1.93,0.107868745398284,0.026500906736220697,9.842140322843969,-0.0005408701087335008,0.005184866502489031,0.009389240495962743,0.030869857067347795,0.08322653632237942,0.0,0.04779114314854347,0.08564192023290455,0.0,0.04902541663101793,0.04312740293274646,0.0
1.94,0.031057682286573213,0.019436334664385574,9.885245746674089,-0.0017602911476591852,-0.0005380580527709454,0.011696277824455429,0.031350223830930446,0.08408511157329368,0.0,0.04828261562813552,0.08607309775336208,0.0,0.04926905274787785,0.04310808498960089,0.0
1.95,0.037670718664375186,0.028921315672129275,9.811471487005717,0.0025040961104945826,-0.011194686164669843,0.012246785666599858,0.03183551749845703,0.08494799763189853,0.0,0.04877652367139538,0.08650408160938597,0.0,0.04951252923304999,0.043088670053282284,0.0
1.96,0.08405564913834206,0.05852135163635937,9.834512395690739,0.003600382830397661,0.0057386639607282875,0.0033646458029816338,0.03232576241757035,0.08581519255670078,0.0,0.049272865678061266,0.08693487083126274,0.0,0.04975584529767072,0.04306915816747423,0.0
1.97,0.05316084646760851,0.04967439392854366,9.80504512040927,-0.003867328964096453,0.002001323275301547,0.01613356726855924,0.032820982919870234,0.08668669439651233,0.0,0.04977164003998569,0.08736546444971681,0.0,0.0499990001533962,0.04304954937607847,0.0
1.98,0.0650883370108028,0.010569374467354491,9.82056056652855,-0.004048985012486604,-0.00016538182504547726,0.015462415265153805,0.03332120332083499,0.08756250119045417,0.0,0.0502728451411401,0.08779586149591273,0.0,0.050241993012404944,0.04302984372321478,0.0
1.99,0.06058153613166487,0.037111017353037234,9.772782963199056,-0.00017984776826258497,-0.009901859241179936,0.00127557659823716,0.033826447919744984,0.08844261096796169,0.0,0.05077647935762038,0.08822606100145731,0.0,0.05048482308740026,0.04301004125322086,0.0
2.0,0.07585472605558095,0.07770339043366799,9.817984114594823,-0.0077186604028307805,-0.0014915430158352434,0.004639591376056217,0.03433674099960027,0.08932702174878804,0.0,0.051282541057652155,0.08865606199840186,0.0,0.05072748959161295,0.042990142010652266,0.0
2.0100000000000002,0.10819444757821525,0.008029175076363134,9.819307319894918,-0.0023848898759383933,-0.00437738615028358,0.006493818087052722,0.034852106827045315,0.09021573154300921,0.0,0.05179102860159582,0.08908586351924434,0.0,0.05096999173880374,0.04297014604028229,0.0
2.02,0.06892987595031824,0.03730505679901222,9.871969933305342,0.006740389166936788,-0.006081396314822365,0.01513343210806306,0.03537256965228752,0.09110873835102895,0.0,0.052301940341952326,0.08951546459693145,0.0,0.05121232874326588,0.042950053387101846,0.0
2.0300000000000002,0.08577266361813345,0.02713504378816054,9.764149906618899,-0.007531502826053578,-0.0006822471535010908,0.007685390164848833,0.03589815370902172,0.09200604016358205,0.0,0.05281527462336815,0.08994486426486102,0.0,0.0514544998198277,0.0429298640963194,0.0
2.04,0.005191341152924411,0.031019427738257544,9.809573496226767,-0.0017005867965670402,-0.002679834427488179,0.0134968676824534,0.036428883214348895,0.0929076349617397,0.0,0.05333102978264037,0.0903740615568839,0.0,0.051696504183855095,0.042909578213360854,0.0
2.05,0.06547678899335065,-0.016030532883612586,9.85664351653493,-0.0029615040646505833,-0.0023504940132248295,0.010630295469037713,0.036964782368698046,0.09381352071691418,0.0,0.05384920414872303,0.09080305550730641,0.0,0.051938341051254173,0.04288919578386943,0.0
2.06,0.04188310152968754,0.07519160248307172,9.810746855126038,0.010026339406938792,0.003698131832980519,0.011943983617700049,0.03750587535575045,0.094723695390863,0.0,0.05436979604273154,0.09123184515089235,0.0,0.05218000963847368,0.04286871685370558,0.0
2.07,0.03085711734979877,0.009617584442301395,9.81285975401045,-0.002689306033348267,0.0012778607005967436,0.01411665211472524,0.03805218634235774,0.09563815693569344,0.0,0.05489280377794845,0.09166042952286517,0.0,0.0524215091625076,0.042848141468946895,0.0
2.08,0.04131826783303518,0.06360962878049398,9.793002229253535,-0.0023990544267924797,-0.002477574115582233,0.013047390955155343,0.03860373947846596,0.09655690329386712,0.0,0.055418225659829456,0.09208880765891027,0.0,0.0526628388408977,0.04282746967588799,0.0
2.09,0.05788029467071165,0.014165403279615036,9.790021838592116,-0.005153824639008653,-0.0031119061042489504,0.011639501180244828,0.03916055889703607,0.09747993239820563,0.0,0.05594605998600786,0.09251697859517695,0.0,0.05290399789173602,0.04280670152104037,0.0
2.1,0.09562206180434785,0.014020697494259583,9.763224387025005,4.660901783625523e-05,-0.0022742928522982626,0.013418297305349826,0.039722668713967346,0.09840724217189356,0.0,0.05647630504630108,0.09294494136828085,0.0,0.053144985533667456,0.04278583705113239,0.0
2.11,0.028594019453705335,0.0691585738270731,9.799123542570674,0.0013508352751184377,-0.0012372211505050363,0.01291618409957515,0.04029009302801678,0.09933883052848413,0.0,0.05700895912271547,0.09337269501530586,0.0,0.05338580098589225,0.04276487631310911,0.0
2.12,0.06954538824600108,0.06256035745846987,9.788319348346636,-0.004429099238097971,0.002920250921879227,0.01083131093011354,0.040862855920723584,0.10027469537190448,0.0,0.0575440204894524,0.0938002385738065,0.0,0.053626443468168555,0.04274381935413215,0.0
2.13,0.054341829200807566,0.03898264319049916,9.821541165009712,0.004943614003609827,-0.005212800648132494,0.0097716839172785,0.04144098145632902,0.10121483459645875,0.0,0.05808148741291337,0.09422757108180989,0.0,0.05386691220081493,0.04272266622157968,0.0
2.14,0.05927701357385408,0.05553593345723583,9.794369953927287,0.0013553179214425442,0.007292196087528001,0.021378182838507453,0.04202449368170069,0.10215924608683391,0.0,0.058621358151706104,0.09465469157781814,0.0,0.0541072064047129,0.04270141696304623,0.0
2.15,0.09943006006044758,0.024023488218650635,9.803612270448545,0.0042594963438259085,0.002923859955638191,0.009810444310967763,0.04261341662625129,0.10310792771810484,0.0,0.05916363095664989,0.09508159910081022,0.0,0.05434732530130945,0.04268007162634264,0.0
2.16,0.08573073122273736,0.032407601427929186,9.80443383820827,-0.0016406776391995964,-0.013689639954369823,0.018906835548361426,0.04320777430186484,0.10406087735573832,0.0,0.05970830407078127,0.09550829269024448,0.0,0.05458726811261958,0.042658630259495886,0.0
2.17,0.10994897728451106,0.012788361136834472,9.816555044531288,0.0012159216544566668,0.0004267461721427157,0.00869399800283328,0.043807590702816146,0.10501809285559771,0.0,0.060255375729359885,0.09593477138606046,0.0,0.054827034061228755,0.04263709291074905,0.0
2.18,0.06543145199279854,0.059737408107568946,9.802144332307854,-0.001065482474370409,0.0052036832168789815,0.016218190393951004,0.0444128898056928,0.1059795720639487,0.0,0.060804844159874,0.09636103422868131,0.0,0.055066622370295554,0.042615459628561156,0.0
2.19,0.04942775391343294,0.011791330526586496,9.786146417301886,0.007288407747455748,0.001943529540804004,0.021133673546096025,0.04502369556931973,0.10694531281746356,0.0,0.061356707582046345,0.09678708025901576,0.0,0.05530603226355404,0.04259373046160707,0.0
2.2,0.06382949845890137,0.077126595806913,9.820572993318434,0.0005813206868553106,-0.0020617047985908104,0.01057480460508112,0.045640031934680136,0.10791531294322598,0.0,0.061910964207840015,0.09721290851846051,0.0,0.05554526296531637,0.04257190545877741,0.0
2.21,0.07805921743861192,0.02307495961958371,9.850024496487938,4.376974157499405e-05,-0.00030545889822475146,0.008972720543066356,0.046261922824836876,0.10888957025873602,0.0,0.06246761224146394,0.09763851804890207,0.0,0.055784313700475284,0.04254998466917844,0.0
2.22,0.07632038444811794,0.033143225062621934,9.821853985873723,-0.002291209995104571,0.0008915997408550885,0.010210766713656701,0.04688939214485788,0.10986808257191538,0.0,0.063026649879379,0.09806390789271922,0.0,0.05602318369450661,0.0425279681421319,0.0
2.23,0.03873023000647077,0.05526769654680502,9.79970538685284,-0.0025798181523608195,0.0038479412731165785,0.012307198926902683,0.0475224637817353,0.1108508476811112,0.0,0.06358807531030379,0.09848907709278497,0.0,0.05626187217347177,0.042505855927175,0.0
2.24,0.07421507181285654,0.03319958070974764,9.81430560784719,0.001188610374119135,-0.007075474240618502,0.01406040443915979,0.04816116160431139,0.11183786337510293,0.0,0.06415188671522039,0.09891402469246884,0.0,0.05650037836402031,0.04248364807406018,0.0
2.25,0.07858555139755953,0.023524095204195815,9.756481016889303,0.004097937296863572,-0.003025091766182741,0.012297960386402082,0.04880550946319806,0.11282912743310547,0.0,0.06471808226738025,0.09933874973563886,0.0,0.05673870149339238,0.042461344632755124,0.0
2.2600000000000002,0.14750106191543888,0.03153824221918841,9.813817917513834,-0.0034227904895504408,0.008192890640337394,0.010444809642635016,0.04945553119070234,0.11382463762477535,0.0,0.06528666013231037,0.0997632512666639,0.0,0.05697684078942125,0.042438945653442556,0.0
2.27,0.1285201338189859,0.05923100179324768,9.805989368927285,0.0006328963858806434,0.00016473611640467853,0.022364114933272623,0.05011125060074728,0.11482439171021452,0.0,0.06585761846781883,0.10018752833041565,0.0,0.057214795480535784,0.04241645118652017,0.0
2.2800000000000002,0.046855264278998436,0.012508294618499345,9.789996189259805,0.0009208474550955745,0.007639510684390397,0.01163577139797523,0.05077269148879515,0.11582838743997725,0.0,0.06643095542400133,0.10061157997227095,0.0,0.05745256479576304,0.04239386128260051,0.0
2.29,0.06406864711825531,0.028584065774312904,9.79543704943004,0.0017918175818780518,0.014927965188921252,0.009583904778950596,0.05143987763177149,0.11683662255507321,0.0,0.06700666914324653,0.10103540523811375,0.0,0.0576901479647306,0.04237117599251085,0.0
2.3000000000000003,0.029024284162559137,0.03265699718741734,9.80569296495381,-0.008537482009303593,-0.0024601740340403,0.016883299482342136,0.05211283278798673,0.11784909478697392,0.0,0.06758475776024246,0.10145900317433738,0.0,0.057927544217669234,0.04234839536729308,0.0
2.31,0.05544354236651067,0.0582630753240333,9.847773748280193,-0.0046236634985549405,-0.005986405706803355,0.017009140045091735,0.0527915806970598,0.11886580185761741,0.0,0.06816521940198257,0.10188237282784668,0.0,0.05816475278541526,0.042325519458203606,0.0
2.32,0.08286992300712337,0.0293071871005701,9.850761812503402,-0.006829222600609503,-0.0013276535538996699,0.01988551034278399,0.053476145079840665,0.11988674147941314,0.0,0.06874805218777151,0.10230551324606009,0.0,0.05840177289941315,0.0423025483167132,0.0
2.33,0.10981421241836495,0.08652845482931859,9.790156245153264,0.00016442213325872787,0.005494963588243658,0.022508369256627934,0.05416654963833478,0.12091191135524748,0.0,0.06933325422923176,0.10272842347691187,0.0,0.058638603791717946,0.04227948199450693,0.0
2.34,0.052002729562689476,0.02756016321203115,9.802457678802698,-0.004504866849451556,0.006194479358881434,0.01464628174434334,0.054862818055624984,0.12194130917848844,0.0,0.06992082363030905,0.10315110256885414,0.0,0.05887524469499774,0.04225632054348401,0.0
2.35,0.05448730164050235,0.025102554863599295,9.803222301281343,-0.0024812055921337394,0.011359887425784232,0.011519405362995925,0.055564973995795075,0.12297493263299142,0.0,0.0705107584872792,0.10357354957085917,0.0,0.05911169484253624,0.042233064015757694,0.0
2.36,0.009929282576075504,0.027078748815123205,9.842286365466503,-0.005971402619554231,-0.0001840275965813693,0.0034951295570760446,0.056273041103853005,0.12401277939310407,0.0,0.07110305688875362,0.10399576353242136,0.0,0.059347953468235154,0.04220971246365516,0.0
2.37,0.06970404219026952,-0.007312976920022918,9.822365196578948,-0.0020161826858390132,0.00244028257776244,0.008362579045345233,0.056987043005655824,0.12505484712367165,0.0,0.07169771691568609,0.10441774350355947,0.0,0.05958401980661675,0.04218626593971739,0.0
2.38,0.042947460737039395,0.0010609190939384998,9.82078369587923,-0.005620518006093845,-0.0035588482547727358,0.014140048757126416,0.05770700330783041,0.12610113348004215,0.0,0.0722947366413786,0.10483948853481875,0.0,0.05981989309282629,0.04216272449669905,0.0
2.39,0.059172389741652356,0.016219081495395575,9.834087878402634,0.003789542210164753,-0.012534924746888085,0.007237816585921748,0.05843294559769863,0.127151636108072,0.0,0.07289411413148787,0.10526099767727304,0.0,0.06005557256263456,0.042139088187568376,0.0
2.4,0.0489852341074126,0.06619025253101096,9.800107597747672,0.0023961398489778895,-0.00019826348824212182,0.0052620846659721925,0.05916489344320186,0.12820635264413038,0.0,0.07349584744403126,0.10568226998252699,0.0,0.06029105745244025,0.042115357065507064,0.0
2.41,0.07269847037169581,0.03109774940304982,9.858916597230621,0.0007511464073717642,-0.005768771268698542,0.013561881845697158,0.05990287039282305,0.12926528071510557,0.0,0.07409993462939335,0.10610330450271804,0.0,0.06052634699927253,0.042091531183910125,0.0
2.42,0.02302958870009455,0.017528284907914582,9.817947660277394,-0.0015097096484028422,0.003216786016298351,0.017161468303235512,0.06064689997550943,0.13032841793840988,0.0,0.07470637373033222,0.10652410029051874,0.0,0.060761440440793485,0.04206761059638578,0.0
2.43,0.03198497965357085,0.06883963772495319,9.792322626614242,-0.010188433831513626,-0.009406966602695811,0.012090092316369249,0.061397005700599694,0.1313957619219852,0.0,0.07531516278198574,0.10694465639913874,0.0,0.06099633701530057,0.04204359535675533,0.0
2.44,0.14010844932257804,0.0785547995058209,9.811110792686064,-0.002291033127474229,-0.0036966644535876858,0.01785111099515468,0.062153211057744295,0.1324673102643079,0.0,0.07592629981187793,0.10736497188232692,0.0,0.06123103596172908,0.042019485519053074,0.0
2.45,0.03784285908143371,0.06965675496475893,9.854957849726235,-0.0038072827184368707,0.0013383960182022933,0.01649465793237843,0.06291553951683193,0.13354306055439458,0.0,0.07653978283992524,0.10778504579437367,0.0,0.06146553651965464,0.04199528113752612,0.0
2.46,0.04379627057565646,0.0063782823495796,9.805245735920487,0.001236371086327608,0.0018618108370656158,0.01920235910389203,0.06368401452791184,0.13462301037180757,0.0,0.07715560987844335,0.10820487719011286,0.0,0.06169983792929565,0.04197098226663433,0.0
2.47,0.13204134528115516,0.01708913035524047,9.846486733971345,0.003098535844021859,-0.00023719623738033838,0.024367713150375336,0.06445865952111896,0.13570715728666038,0.0,0.07777377893215301,0.10862446512492403,0.0,0.06193393943151575,0.04194658896105014,0.0
2.48,0.16431985534503846,0.08633418338510004,9.799239626216854,0.0016231633124654326,0.009336725839655545,0.0266148608771449,0.06523949790659689,0.13679549885962272,0.0,0.0783942879981872,0.1090438086547345,0.0,0.06216784026782625,0.041922101275658485,0.0
2.49,0.04225454081562845,0.03913171002555731,9.79503008909668,0.006315191545632941,0.007847318179045581,0.017247168169265713,0.06602655307442307,0.1378880326419265,0.0,0.07901713506609705,0.10946290683602149,0.0,0.062401539680388696,0.041897519265556654,0.0
2.5,0.06658756820837623,0.023844031039171782,9.837787922317828,-0.0028415711719254493,-0.003421637465329603,0.011333524250922836,0.06681984839453237,0.13898475617537143,0.0,0.07964231811785841,0.10988175872581427,0.0,0.06263503691201715,0.04187284298605414,0.0
2.5100000000000002,0.0881149977343961,0.053398511332597695,9.791780823180627,-0.003048879406603218,0.008047048338931806,0.01398579455191259,0.06761940721664206,0.14008566699232983,0.0,0.08026983512787905,0.11030036338169627,0.0,0.06286833120618081,0.041848072492672576,0.0
2.52,0.12996235113917412,0.06204217986188893,9.84267620750485,0.005189391144512885,0.008811007243950906,0.02158660487433541,0.06842525287017454,0.1411907626157527,0.0,0.08089968406300425,0.11071871986180722,0.0,0.06310142180700634,0.041823207841145564,0.0
2.5300000000000002,0.04872859560643332,0.014654761959570613,9.828548779970701,0.0008310819726906707,-0.0006195118702116966,0.009297800518735605,0.06923740866418426,0.14230004055917567,0.0,0.08153186288252395,0.11113682722484516,0.0,0.06333430795928044,0.04179824908741855,0.0
2.54,0.07120865353018885,0.03835639504624667,9.791792181965972,-0.0012349937027110803,0.00022701561426079043,0.02104570024967624,0.07005589788727962,0.14341349832672345,0.0,0.0821663695381794,0.11155468453006874,0.0,0.06356698890845214,0.04177319628764872,0.0
2.5500000000000003,0.1021195911824877,0.05954485157471662,9.81585671768017,0.009232605724473911,-0.000253607765632997,0.013001119671678772,0.07088074380755005,0.14453113341311696,0.0,0.08280320197416967,0.11197229083729919,0.0,0.06379946390063539,0.04174804949820487,0.0
2.56,0.09207471441660997,-0.003085805603128343,9.801536771283214,0.002888652736913413,-0.0032249969407868195,0.01502959027690256,0.07171196967248727,0.1456529433036775,0.0,0.08344235812715804,0.1123896452069225,0.0,0.0640317321826114,0.04172280877566725,0.0
2.57,0.0679791108649282,0.03206783789961169,9.82846929670007,-0.000952720869670417,-0.002728338397947354,0.009898618213393159,0.0725495987089142,0.14677892547433302,0.0,0.08408383592627927,0.1128067466998915,0.0,0.06426379300183117,0.0416974741768275,0.0
2.58,0.0754809566709366,-0.001759643832833016,9.874633947348663,-0.0034297240682365005,0.006596612861982977,0.007361400078514839,0.0733936541229061,0.14790907739162473,0.0,0.08472763329314575,0.11322359437772804,0.0,0.06449564560641784,0.04167204575868844,0.0
2.59,0.0384804149940697,0.0021391086706596812,9.806878861913377,0.0066325633579193445,0.002186880715751739,0.012628690302803,0.07424415909971738,0.1490433965127107,0.0,0.08537374814185475,0.11364018730252495,0.0,0.06472728924516916,0.04164652357846401,0.0
2.6,0.07281351084831998,0.014727905369169958,9.834013288215754,0.0010349851044483456,-0.0027709477353093405,0.020580646855685943,0.07510113680370578,0.15018188028537405,0.0,0.08602217837899451,0.11405652453694842,0.0,0.06495872316755993,0.04162090769357908,0.0
2.61,0.07219832192347583,0.04590878429805352,9.818733219250024,0.00012258459769213514,-0.004629980361777257,0.010598377035781197,0.07596461037825675,0.15132452614802605,0.0,0.08667292190365182,0.11447260514423978,0.0,0.06518994662374449,0.041595198161669414,0.0
2.62,0.08738605555334669,0.02190871618143738,9.818721731091895,0.0033813821372754506,-0.003790551993067377,0.02221325011698424,0.07683460294570965,0.15247133152971437,0.0,0.0873259766074182,0.11488842818821787,0.0,0.06542095886455901,0.04156939504058142,0.0
2.63,0.06399194257695355,0.012090954639319952,9.813043846378054,0.0044004392842698714,-0.0008192761101745804,0.011328614534527258,0.07771113760728277,0.15362229385012727,0.0,0.08798134037439675,0.11530399273328097,0.0,0.06565175914152403,0.04154349838837214,0.0
2.64,0.09502850238320104,0.03306414516305777,9.792277476609453,0.0027493499224544838,0.004565849436536294,0.008894055046181987,0.07859423744299798,0.15477741051960003,0.0,0.08863901108120978,0.1157192978444091,0.0,0.06588234670684687,0.041517508263308994,0.0
2.65,0.11149419534801887,-0.002917457124123106,9.828054198478473,0.00441987787815972,-0.004300405847118649,0.015545457341606101,0.07948392551160488,0.15593667893912078,0.0,0.08929898659700451,0.11613434258716587,0.0,0.06611272081342401,0.04149142472386978,0.0
2.66,0.08600576054489752,0.04432934436375974,9.809337747502418,0.00225687179451341,0.004508512840682931,0.017714584812931772,0.08038022485050789,0.15710009650033596,0.0,0.08996126478346095,0.11654912602770084,0.0,0.06634288071484354,0.04146524782874244,0.0
2.67,0.09212551791736372,0.06538058049557427,9.790855997487839,0.002774452917151133,0.0009847837416064851,0.015301488358897275,0.08128315847569123,0.1582676605855564,0.0,0.09062584349479837,0.1169636472327514,0.0,0.06657282566538761,0.04143897763682498,0.0
2.68,0.08339721534737077,0.029036492977584965,9.84842519786745,-0.003658189274217175,0.0007142097126598754,0.01515751040724597,0.08219274938164345,0.15943936856776375,0.0,0.09129272057778232,0.11737790526964505,0.0,0.06680255492003474,0.041412614207225314,0.0
2.69,0.08203459952720482,0.025306687800254912,9.82097028868107,0.009051769408087796,0.005128980740729603,0.02245910951239047,0.0831090205412841,0.16061521781061505,0.0,0.09196189387173162,0.11779189920630134,0.0,0.0670320677344624,0.04138615759926116,0.0
2.7,0.060614622358763796,0.04256281846892694,9.811157031279702,-0.006168383294953514,0.004216793589698946,0.014960316224863485,0.08403199490588831,0.16179520566845063,0.0,0.09263336120852533,0.11820562811123413,0.0,0.06726136336504922,0.04135960787245986,0.0
2.71,0.09198526891907681,-0.029521117478388044,9.858201698442388,0.0015468880724873704,-0.007022589462857794,0.012175014218483786,0.08496169540501342,0.16297932948629779,0.0,0.09330712041260991,0.1186190910535535,0.0,0.06749044106887757,0.0413329650865583,0.0
2.72,0.07980070215133124,0.047410752999438754,9.76291755393401,-0.006683835290893039,-0.005420068229042183,0.008903374344070314,0.08589814494642223,0.16416758659987862,0.0,0.09398316930100625,0.11903228710296809,0.0,0.06771930010373592,0.04130622930150273,0.0
2.73,0.145742988996039,0.12433597468979456,9.856184624111872,-0.0004906436941797763,-0.0011475824933769756,0.020977443308360235,0.0868413664160137,0.1653599743356151,0.0,0.09466150568331635,0.11944521532978689,0.0,0.06794793972812116,0.04127940057744866,0.0
2.74,0.1303770062754984,0.027572192341319093,9.791594361525913,-0.002856468189340425,0.001779864115155925,0.012521786063342531,0.087791382677743,0.16655649001063533,0.0,0.09534212736173107,0.1198578748049216,0.0,0.06817635920124113,0.041252478974760705,0.0
2.75,0.09497995435971193,0.027651713542522542,9.824345976182466,0.0006787793567199182,0.00682287827611663,0.013050440703498053,0.08874821657355181,0.16775713093277944,0.0,0.09602503213103662,0.12027026459988854,0.0,0.0684045577830169,0.041225464554012464,0.0
2.7600000000000002,0.060740818443242306,0.053506567378976855,9.80035808737638,0.0017087884067882256,0.0003253376293120206,0.01999099991789562,0.08971189092329235,0.16896189440060616,0.0,0.09671021777862228,0.1206823837868109,0.0,0.06863253473408533,0.04119835737598636,0.0
2.77,0.0504879451562987,0.0805311375476124,9.790309968786428,-0.00478166851497296,0.0085184814936242,0.025042856529724558,0.0906824285246528,0.17017077770339784,0.0,0.09739768208448707,0.12109423143842062,0.0,0.06886028931580124,0.04117115750167355,0.0
2.7800000000000002,0.11982210938290597,0.06039290032529776,9.857416595779053,-0.00014707227475787868,-0.0035333775694295784,0.01606915883932368,0.09165985215308581,0.171383778121168,0.0,0.0980874228212473,0.12150580662806074,0.0,0.06908782079024002,0.04114386499227372,0.0
2.79,0.09219760517461402,-0.033551726448311496,9.873686497021858,0.006968371112281411,-0.002687893271397191,0.01416775630678454,0.09264418456173251,0.17260089292466563,0.0,0.09877943775414355,0.12191710842968714,0.0,0.06931512842019986,0.04111647990919502,0.0
2.8000000000000003,0.09894651357095259,0.04799096744393627,9.811363230480467,-0.006561325487507303,-0.0015284125226348048,0.014864600023551668,0.09363544848134975,0.1738221193753835,0.0,0.09947372464104803,0.12232813591787106,0.0,0.06954221146920427,0.04108900231405387,0.0
2.81,0.03243148959227857,0.10821933662592509,9.828064241065828,-0.004270268845810332,-0.004086137628165108,0.012655151667382344,0.09463366662023587,0.17504745472556227,0.0,0.10017028123247185,0.12273888816780074,0.0,0.06976906920150434,0.04106143226867485,0.0
2.82,0.11281885532882667,0.0497070012378745,9.819709737549875,0.004303773239576674,0.005797022409740205,0.013193452558885141,0.0956388616641588,0.17627689621819798,0.0,0.10086910527157222,0.12314936425528383,0.0,0.06999570088208125,0.04103376983509054,0.0
2.83,0.0988547159230794,-0.003632042322611065,9.869915205120586,0.00038777406623210017,-0.013849154558379807,0.013259954775802846,0.09665105627628012,0.17751044108704783,0.0,0.10157019449416005,0.12355956325674931,0.0,0.07022210577664852,0.04100601507554142,0.0
2.84,0.05213536261922018,0.0394330567850341,9.754605486576393,0.0007557746491228222,-0.0025178446569181245,0.019605617749857165,0.0976702730970822,0.1787480865566362,0.0,0.10227354662870658,0.12396948424924958,0.0,0.07044828315165452,0.040978168052475686,0.0
2.85,0.07152848805078627,-0.0074703887116829015,9.829313703238107,0.005111511743461637,0.005741036400992485,0.014650565359854761,0.09869653474429851,0.17998982984226175,0.0,0.10297915939635179,0.1243791263104626,0.0,0.07067423227428474,0.04095022882854911,0.0
2.86,0.09381146854315976,0.06790630814469073,9.796186210575682,-0.003970343508991462,-0.0015615924053459824,0.0219272855259316,0.09972986381283322,0.18123566815000225,0.0,0.10368703051091073,0.1247884885186939,0.0,0.07089995241246418,0.04092219746662495,0.0
2.87,0.08769944678554717,0.00221759638893599,9.747321079355864,-0.0025966761504879776,0.005364432351562507,0.014588506626696812,0.10077028287469592,0.18248559867672198,0.0,0.10439715767888168,0.12519756995287865,0.0,0.07112544283485986,0.040894074029773755,0.0
2.88,0.07758556723677633,0.03309316762203393,9.807184097077123,-0.003213209332334193,0.010988420724980727,0.01337377910681072,0.10181781447892035,0.18373961861007815,0.0,0.10510953859945325,0.12560636969258385,0.0,0.07135070281088297,0.04086585858127324,0.0
2.89,0.08347108356871255,0.00510415112485273,9.873441463727316,-0.0017410152366778135,0.00040192323517878616,0.021637195436690012,0.1028724811515005,0.18499772512852597,0.0,0.10582417096451194,0.1260148868180102,0.0,0.07157573161069138,0.04083755118460816,0.0
2.9,0.07924120715898544,0.014415710177030416,9.798318524287987,0.006697610424738392,0.005844671344973712,0.015394328838641773,0.10393430539530835,0.1862599154013267,0.0,0.10654105245864934,0.1264231204099944,0.0,0.071800528505192,0.04080915190347015,0.0
2.91,0.09160196812911713,0.0753651801775724,9.841722965196938,-0.008505400477622561,0.012095687618456344,0.014693028150276215,0.10500330969002869,0.1875261865885527,0.0,0.10726018075917017,0.12683106955001103,0.0,0.07202509276604308,0.040780660801757566,0.0
2.92,0.13139418285545126,0.0338557928903863,9.8539601659119,-0.005971094054550366,0.002010453536052346,0.015531485518392497,0.10607951649208092,0.18879653584109413,0.0,0.10798155353609928,0.12723873332017463,0.0,0.07224942366565656,0.04075207794357538,0.0
2.93,0.01047376724926169,0.013947329181463415,9.817619095921414,-0.006828415336465896,-0.00024031593694151627,0.022735274415722796,0.1071629482345493,0.19007096030066584,0.0,0.10870516845218968,0.12764611080324198,0.0,0.07247352047720061,0.04072340339323502,0.0
2.94,0.08059187453931119,-0.0036622019113474805,9.821613668552338,0.00700846975342984,0.00451232658712531,0.016970621436148695,0.10825362732710753,0.1913494570998131,0.0,0.10943102316292946,0.12805320108261384,0.0,0.07269738247460171,0.0406946372152542,0.0
2.95,0.0932163815737206,-0.025485265117626277,9.766511062803767,-0.0030719996734988163,0.0059210837668614204,0.021725719687219217,0.10935157615595115,0.1926320233619192,0.0,0.11015911531655008,0.1284600032423373,0.0,0.07292100893254719,0.04066577947435682,0.0
2.96,0.09702421881710048,-0.006901588770207828,9.79651508410482,-0.0016333682304249934,-0.00019407646936819728,0.014343105392603575,0.11045681708371857,0.19391865620121007,0.0,0.11088944255403357,0.12886651636710766,0.0,0.0731443991264875,0.04063683023547277,0.0
2.97,0.07721011489299993,0.03396656680706917,9.845210228729899,-0.008073170889604683,-0.002419218292803797,0.021001034954396487,0.11156937244942489,0.19520935272276252,0.0,0.11162200250912041,0.1292727395422706,0.0,0.07336755233263863,0.04060778956373784,0.0
2.98,0.03588881435362692,0.05998567058617343,9.819820372911112,-0.0013119301808295933,0.008586976591481657,0.016780087629188832,0.11268926456838235,0.19650411002251,0.0,0.1123567928083169,0.12967867185382403,0.0,0.0735904678279844,0.04057865752449352,0.0
2.99,0.09865300940170207,0.013738889410620861,9.82902024324331,0.004332608604209834,-0.0013530722886106016,0.02004204946093177,0.11381651573213647,0.19780292518724907,0.0,0.11309381107090327,0.13008431238842055,0.0,0.07381314489027878,0.040549434183286895,0.0
3.0,0.14085608922297382,0.0776364276274409,9.821994727390491,0.0012647852413648155,0.00596864385241129,0.020499769375949488,0.11495114820838648,0.199105795294646,0.0,0.11383305490894068,0.13048966023336905,0.0,0.07403558279804828,0.040520119605870465,0.0
3.0100000000000002,0.04324193868311015,0.008965701191355202,9.883760118328892,-0.0005393202564931278,0.0013143363660141922,0.010995666590132503,0.11609318424091697,0.20041271741324418,0.0,0.11457452192728007,0.1308947144766371,0.0,0.07425778083059428,0.04049071385820201,0.0
3.02,0.115394578678941,0.023320865320048068,9.805084405064342,-0.007824427627258705,0.0091348257882925,0.016100636976262614,0.11724264604952639,0.2017236886024687,0.0,0.11531820972356864,0.13129947420685276,0.0,0.07447973826799535,0.04046121700644445,0.0
3.0300000000000002,0.07984569769742278,-0.0019556724931518513,9.866162301289588,-0.0016397604365398597,-0.004245229613277177,0.020563781748570927,0.1183995558299511,0.2030387059126353,0.0,0.11606411588825889,0.1317039385133069,0.0,0.07470145439110959,0.040431629116965705,0.0
3.04,0.08808319810671156,0.06012480229337418,9.822005096666201,0.0007345738196294098,-0.004254902010163025,0.02139701987595889,0.11956393575379742,0.2043577663849554,0.0,0.11681223800461532,0.1321081064859549,0.0,0.07492292848157697,0.040401950256338505,0.0
3.0500000000000003,0.05855720450070311,0.0932974989126773,9.868825969237424,-0.004959124285166524,0.004272432009150016,0.02211842412146006,0.12073580796846972,0.20568086705154354,0.0,0.11756257364872297,0.13251197721541907,0.0,0.07514415982182159,0.04037218049134027,0.0
3.06,0.08033146252437781,-0.022512188939132975,9.781250657322255,0.0032744557898894055,-0.005651696532886517,0.016411406412075048,0.12191519459709532,0.20700800493542393,0.0,0.11831512038949495,0.1329155497929904,0.0,0.07536514769505412,0.04034231988895296,0.0
3.0700000000000003,0.1295872292262428,0.01992750645732197,9.823539566228925,0.004425342733225349,0.0005831423124479456,0.023625188551472456,0.12310211773845525,0.20833917705053695,0.0,0.11906987578868052,0.13331882331063075,0.0,0.07558589138527405,0.04031236851636292,0.0
3.08,0.10828604743690325,0.06822572185246178,9.806189396482296,-0.0026432435432704768,0.00774204616479938,0.012674337739850028,0.12429659946691274,0.20967438040174557,0.0,0.11982683740087295,0.1337217968609749,0.0,0.07580639017727203,0.040282326440960727,0.0
3.09,0.14299599151893044,-0.013156171912427003,9.8221841700755,0.003629160968858522,-0.008924160694668006,0.008522630838347652,0.12549866183234126,0.21101361198484292,0.0,0.12058600277351701,0.13412446953733256,0.0,0.07602664335663213,0.040252193730341036,0.0
3.1,0.12656900687906508,0.04722248766143501,9.854671287879983,-0.0005486979874201657,0.002010696393042856,0.014644344348414157,0.1267083268600535,0.2123568687865589,0.0,0.12134736944691796,0.13452684043369031,0.0,0.07624665020973427,0.04022197045230242,0.0
3.11,0.10463901039164374,0.06683582268107438,9.829364288160738,0.005735689907894066,0.006058726946621355,0.022047408078799454,0.12792561655072676,0.2137041477845656,0.0,0.12211093495424806,0.13492890864471385,0.0,0.07646641002375645,0.040191656674847274,0.0
3.12,0.14400395787171077,0.03250811689688667,9.854611480700807,0.010170753300290403,-0.00012953832526741563,0.01067281402717193,0.12915055288033894,0.21505544594748627,0.0,0.12287669682155596,0.13533067326574985,0.0,0.07668592208667702,0.04016125246618156,0.0
3.13,0.1050749804494261,0.046638650022918705,9.797893367201782,-0.0054683274096662335,-0.004635464151829072,0.008790068109598523,0.13038315780008825,0.2164107602349008,0.0,0.12364465256777378,0.13573213339282814,0.0,0.07690518568727714,0.04013075789471473,0.0
3.14,0.11696384541905466,0.0829272446128878,9.793314966274288,0.0038474220177333296,-0.0013130400404700482,0.007572176271673182,0.1316234532363305,0.21777008759735206,0.0,0.12441479970472563,0.1361332881226635,0.0,0.0771242001151429,0.04010017302905958,0.0
3.15,0.08344583605462648,0.08852229456106642,9.818483152194117,0.006524822830813638,-0.0041925989323702865,0.019889660096714425,0.13287146109050196,0.21913342497635435,0.0,0.12518713573713544,0.13653413655265806,0.0,0.07734296466066773,0.04006949793803202,0.0
3.16,0.09455785309083088,0.028179716299616523,9.816840434648267,-0.004853401701759162,0.00034579112508220867,0.009006986624706444,0.1341272032390517,0.2205007693043992,0.0,0.1259616581626351,0.13693467778090296,0.0,0.07756147861505473,0.040038732690651016,0.0
3.17,0.07185702657131057,0.01403654187716135,9.812424218935274,-0.0028756033410933008,-0.0013835278017612785,0.019025087251568363,0.13539070153336752,0.2218721175049625,0.0,0.1267383644717727,0.1373349109061806,0.0,0.07777974127031888,0.040007877356138345,0.0
3.18,0.12268526995713494,0.002377528671707603,9.78924104822988,-0.002931885491146019,-0.002566302612317404,0.014674281554344165,0.13666197779971112,0.22324746649251126,0.0,0.12751725214802043,0.13773483502796668,0.0,0.07799775191928936,0.0399769320039185,0.0
3.19,0.05786640116216587,0.05925482121647989,9.853959547695556,-0.0006639061926806104,0.0023307369748084544,0.012496355573047166,0.1379410538391408,0.22462681317251065,0.0,0.12829831866778285,0.13813444924643203,0.0,0.07821550985561183,0.03994589670361851,0.0
3.2,0.11690352464628065,-0.011238495208661263,9.807114883980995,-0.0017818275311031076,0.007895578110606932,0.011390219738900146,0.13922795142744437,0.2260101544414317,0.0,0.12908156150040526,0.13853375266244486,0.0,0.0784330143737508,0.03991477152506778,0.0
3.21,0.08793073304383704,0.022306335398561902,9.86078234366638,-0.0009914229402754105,0.0016391043942225161,0.017449622989766413,0.14052269231506687,0.22739748718675656,0.0,0.12986697810818146,0.13893274437757264,0.0,0.07865026476899183,0.039883556538297976,0.0
3.22,0.12900467314146338,0.03293294494217676,9.818382300956122,0.004189941641390843,0.006718327852218812,0.012681569372097523,0.14182529822704337,0.22878880828698756,0.0,0.1306545659463624,0.13933142349408417,0.0,0.0788672603374438,0.03985225181354278,0.0
3.23,0.11661007003797907,0.014730782039675172,9.837452867924421,-0.009479058609430782,0.007894124488902265,0.01646153598070368,0.14313579086292316,0.23018411461165278,0.0,0.13144432246316412,0.13972978911495162,0.0,0.07908400037604128,0.03982085742123781,0.0
3.24,0.14891986891195078,0.03818398138259416,9.83473128928891,-0.00486946710820688,-0.002933201511590937,0.018527325171389303,0.14445419189670616,0.2315834030213133,0.0,0.1322362450997762,0.14012784034385253,0.0,0.07930048418254673,0.03978937343202045,0.0
3.25,0.1164399517897121,0.1066931994655124,9.793271757789475,0.0033496403810493337,0.0013742925199559685,0.01961734393416636,0.14578052297676614,0.23298667036757115,0.0,0.13303033129036992,0.14052557628517176,0.0,0.07951671105555276,0.03975779991672965,0.0
3.2600000000000002,0.047571472624887354,0.026078179236009535,9.829016087646574,0.002763880743104372,-0.002124738220743114,0.021259235361970653,0.14711480572578495,0.23439391349307503,0.0,0.13382657846210685,0.14092299604400366,0.0,0.07973268029448458,0.03972613694640581,0.0
3.27,0.09293979601265592,0.016632215769468908,9.875849988334013,-0.005292710970166953,-0.0074108192058804844,0.017444721280380597,0.14845706174068019,0.23580512923152885,0.0,0.13462498403514686,0.1413200987261539,0.0,0.07994839119960195,0.0396943845922906,0.0
3.2800000000000002,0.06000362729415733,0.06012249765728238,9.82554836759301,0.0027985097515183465,0.0017788043435942732,0.011403925953799222,0.1498073125925372,0.23722031440769764,0.0,0.13542554542265642,0.14171688343814162,0.0,0.0801638430720018,0.0396625429258268,0.0
3.29,0.07983063994263198,0.03681812134302381,9.84503830218679,0.006634334784098879,-0.005260748090242321,0.019016159662077307,0.15116557982653633,0.23863946583741513,0.0,0.13622826003081753,0.1421133492872014,0.0,0.08037903521362022,0.03963061201865816,0.0
3.3000000000000003,0.1409308199255365,0.07277866507897049,9.838798155337765,-0.0002451325723275487,0.002421516377994387,0.02000153778335343,0.15253188496188752,0.24006258032759153,0.0,0.1370331252588354,0.14250949538128524,0.0,0.08059396692723485,0.03959859194262919,0.0
3.31,0.11493465184339804,0.034507111364376605,9.82721148975095,-0.005039805110319432,-0.0077793904157060995,0.015845569519171206,0.15390624949175402,0.24148965467621974,0.0,0.13784013849894752,0.14290532082906457,0.0,0.08080863751646716,0.039566482769785055,0.0
3.3200000000000003,0.07505513342842224,0.022081588333240375,9.823594361531741,0.004374771281571236,0.0008549649973880237,0.015346545349702149,0.15528869488319108,0.24292068567238312,0.0,0.13864929713643157,0.14330082473993236,0.0,0.08102304628578462,0.039534284572371375,0.0
3.33,0.06582567154729099,-0.02400974922000256,9.834419466773639,0.008615227154854367,-0.007853665021364647,0.029194492163952545,0.1566792425770691,0.24435567009626236,0.0,0.13946059854961446,0.1436960062240049,0.0,0.08123719254050296,0.0395019974228341,0.0
3.34,0.09743453837307636,-0.01912241942053293,9.840898476394267,-0.004430701517197822,0.003369323831859632,0.010385742273639025,0.15807791398800752,0.24579460471914327,0.0,0.1402740401098801,0.1440908643921241,0.0,0.08145107558678855,0.03946962139381927,0.0
3.35,0.06016789025022665,-0.025633804154640102,9.777435078288468,0.00019626036975016836,-0.0019669003679473832,0.01935161119402556,0.1594847305043059,0.24723748630342346,0.0,0.14108961918167867,0.14448539835585916,0.0,0.08166469473166048,0.039437156558172974,0.0
3.36,0.07674384096109552,0.04078477797746823,9.825419086672893,0.0054507781744351025,-0.00244896553767758,0.022145485836341534,0.16089971348787202,0.24868431160262006,0.0,0.14190733312253476,0.1448796072275089,0.0,0.08187804928299294,0.039404602988941044,0.0
3.37,0.10645142269605466,-0.011495523636654764,9.81247766357758,0.0005767935748159315,0.005632524256214659,0.015240939430582818,0.1623228842741562,0.25013507736137663,0.0,0.14272717928305578,0.1452734901201035,0.0,0.08209113854951734,0.039371960759369024,0.0
3.38,0.13196332292402552,0.06700655092048338,9.806254194690448,-0.008736481665040426,-0.001607850841068008,0.016136466384188104,0.16375426417207883,0.2515897803154712,0.0,0.14354915500694096,0.1456670461474066,0.0,0.08230396184082464,0.0393392299429019,0.0
3.39,0.1157793626341008,0.030213807558862615,9.856878931370856,0.002217088593928992,0.000554263010365652,0.015003348685704743,0.16519387446396294,0.25304841719182214,0.0,0.14437325763098965,0.14606027442391734,0.0,0.0825165184673676,0.039306410613184004,0.0
3.4,0.028990122482519906,0.02194789527100874,9.796005612558083,-0.004894043181614495,-0.0009930810348445997,0.01704327200330766,0.1666417364054662,0.2545109847084974,0.0,0.14519948448511003,0.14645317406487224,0.0,0.0827288077404629,0.039273502844058804,0.0
3.41,0.10707183084320128,0.003924854453438636,9.7761569281907,-0.006353612994970068,0.0025369620967157147,0.021570948472731048,0.16809787122550945,0.25597747957472095,0.0,0.14602783289232796,0.14684574418624727,0.0,0.08294082897229349,0.03924050670956878,0.0
3.42,0.1003135886728881,0.0478751847320614,9.841871486761574,-0.008638739954928976,0.00521472461131298,0.016113617448838196,0.16956230012621099,0.25744789849087946,0.0,0.1468583001687951,0.14723798390475987,0.0,0.08315258147591076,0.03920742228395521,0.0
3.43,0.1107807731264176,0.0050393150553857055,9.775388184303383,0.005952036465828404,0.004178177284456499,0.03268863553091474,0.17103504428281457,0.2589222381485312,0.0,0.14769088362379845,0.14762989233787074,0.0,0.0833640645652368,0.03917424964165805,0.0
3.44,0.1470615680046028,-0.00042035126478071755,9.760161707661243,-0.004173556595087132,-0.0023333428477854802,0.014902850269180168,0.17251612484362466,0.26040049523041287,0.0,0.14852558055976806,0.14802146860378618,0.0,0.08357527755506657,0.039140988857315706,0.0
3.45,0.036889071456927894,0.06475813762392543,9.845248030699699,0.0016666809012393594,0.00604523484302911,0.024084822957788982,0.17400556292993263,0.2618826664104461,0.0,0.14936238827228684,0.14841271182145968,0.0,0.08378621976107017,0.039107640005764964,0.0
3.46,0.08126378774406189,0.03971283798529137,9.822761667516874,0.002894772152897014,-0.004581756815601083,0.019947425563782675,0.17550337963595508,0.2633687483537468,0.0,0.15020130405009846,0.1488036211105942,0.0,0.08399689049979506,0.039074203162040695,0.0
3.47,0.11693447877246885,0.021992795553927635,9.832181588821063,0.0008090949490759997,-0.003712409566890031,0.017800565929999346,0.1770095960287592,0.26485873771663093,0.0,0.1510423251751165,0.14919419559164399,0.0,0.0842072890886682,0.0390406784013758,0.0
3.48,0.05196958286238007,0.048250055341212475,9.80472717275661,0.001482853899869858,-0.000639003679060494,0.024642249544747433,0.17852423314819932,0.26635263114662333,0.0,0.15188544892243325,0.14958443438581667,0.0,0.08441741484599834,0.03900706579920098,0.0
3.49,0.1439057385325835,0.029241321624465518,9.77646781605173,0.0019052404369974832,0.005234002261043948,0.00931815099747246,0.18004731200684443,0.26785042528246406,0.0,0.15273067256032855,0.14997433661507506,0.0,0.08462726709097824,0.03897336543114456,0.0
3.5,0.11088754352470656,0.04042997188658286,9.782426383591469,0.0006904884332269687,-0.005850757097218026,0.019474356804213264,0.18157885358991344,0.2693521167541175,0.0,0.15357799335027852,0.15036390140213934,0.0,0.0848368451436868,0.03893957737303235,0.0
3.5100000000000002,0.12544366790039344,0.004400264629623844,9.809834333017061,-0.0038007975715801195,0.004457420720693271,0.013796340970299938,0.18311887885520628,0.2708577021827778,0.0,0.15442740854696455,0.1507531278704889,0.0,0.08504614832509132,0.038905701700887495,0.0
3.52,0.0831268661113958,0.09098369675824888,9.779827914262459,-0.004246685810757946,-0.00027373547408988697,0.015227920732426568,0.184667408733036,0.27236717818087897,0.0,0.1552789153982821,0.15114201514436437,0.0,0.08525517595704964,0.03887173849093022,0.0
3.5300000000000002,0.12487683806129878,0.01144908878929099,9.82721158721137,-0.0005249077208796312,-0.00216866761793067,0.015022312023157958,0.18622446412615856,0.27388054135210016,0.0,0.15613251114534982,0.15153056234876952,0.0,0.08546392736231247,0.03883768781957774,0.0
3.54,0.13272654854419655,0.07548403957194337,9.804126261858967,-0.0006308202402450829,0.005489031831739635,0.012647508157317862,0.18779006590971026,0.2753977882913752,0.0,0.156988193022518,0.15191876860947331,0.0,0.08567240186452539,0.03880354976344406,0.0
3.5500000000000003,0.10786693939234626,0.023103258920205476,9.823551081420959,0.002146598662132874,-0.00401335414343973,0.009232877647856366,0.1893642349311353,0.276918915584899,0.0,0.15784595825737846,0.1523066330530118,0.0,0.0858805987882312,0.03876932439933977,0.0
3.56,0.10812054423983297,0.05294792527392081,9.822654443846792,0.005508250335825799,0.01142838076874964,0.01946869121875414,0.19094699201012055,0.27844391981013583,0.0,0.15870580407077242,0.15269415480669019,0.0,0.0860885174588721,0.03873501180427194,0.0
3.5700000000000003,0.1094064543812435,0.050727317026227986,9.829603986632735,0.0017195268028474524,-0.0008832089427114162,0.017224254379405758,0.19253835793852714,0.2799727975358268,0.0,0.15956772767680008,0.15308133299858467,0.0,0.08629615720279173,0.038700612055443895,0.0
3.58,0.07560315940505605,0.06307167788475643,9.83298447581867,-0.004054418595585805,0.0007492085211552079,0.016079322999661663,0.19413835348032382,0.2815055453219977,0.0,0.16043172628282987,0.15346816675754452,0.0,0.0865035173472375,0.038666125230255054,0.0
3.59,0.09728473681315217,0.0034128401913764046,9.807682982276622,-0.010905779073653081,0.007714525080392953,0.021406670542523796,0.19574699937151951,0.2830421597199666,0.0,0.161297797089507,0.15385465521319386,0.0,0.08671059722036276,0.03863155140630075,0.0
3.6,0.0973417201776581,0.06086595269973794,9.823519077999014,-0.003844686029396619,0.000879648392901568,0.019898830247451586,0.19736431632009666,0.28458263727235167,0.0,0.16216593729076287,0.15424079749593392,0.0,0.08691739615122887,0.038596890661372084,0.0
3.61,0.11362572940041232,0.08395533860079893,9.825080243852605,-0.006722451807632628,0.0059443443920868845,0.01633317414809371,0.19899032500594194,0.2861269745130792,0.0,0.16303614407382386,0.15462659273694468,0.0,0.08712391346980747,0.038562143073455714,0.0
3.62,0.1323248759142915,0.020766519343477983,9.745133290727198,-0.003651861011803995,-0.009765792337344882,0.03295001610932301,0.2006250460807819,0.28767516796739123,0.0,0.16390841461922082,0.15501204006818703,0.0,0.08733014850698267,0.0385273087207337,0.0
3.63,0.07078001813520082,0.029533569695846976,9.837395772375784,0.0012113849443260562,-0.002212985200854818,0.022813223296295017,0.2022685001681137,0.28922721415185304,0.0,0.16478274610079807,0.15539713862240456,0.0,0.0875361005945531,0.03849238768158331,0.0
3.64,0.09899149815564684,0.01275398076017225,9.822498265886606,0.0004219525391933801,0.0019836688921129613,0.029975005766813265,0.20392070786314287,0.29078310957436093,0.0,0.1656591356857222,0.1557818875331258,0.0,0.08774176906523416,0.038457380034576875,0.0
3.65,0.1473908196824294,0.018029198292928594,9.834921465957306,0.00929088808469105,0.005407096488117047,0.015703790355675054,0.20558168973270918,0.29234285073415145,0.0,0.16653758053449172,0.15616628593466578,0.0,0.08794715325266021,0.03842228585848159,0.0
3.66,0.08084460562700976,0.07972978920023405,9.77939469213658,0.0024154077604109305,0.0038484827913045482,0.01905446332533599,0.20725146631522584,0.2939064341218074,0.0,0.1674180778009463,0.1565503329621283,0.0,0.08815225249138668,0.038387105232259335,0.0
3.67,0.07868956559818256,-0.0017751975488396257,9.808526804745128,0.00954583641657351,0.003380160539664455,0.011641863899219047,0.2089300581206115,0.2954738562192665,0.0,0.16830062463227533,0.15693402775140772,0.0,0.08835706611689217,0.0383518382350665,0.0
3.68,0.10963077922051657,5.2920290730656266e-05,9.785254116303031,0.0035756970199496336,0.005305289211772639,0.01620790062736088,0.21061748563022364,0.2970451134998304,0.0,0.16918521816902798,0.15731736943919092,0.0,0.08856159346558076,0.038316484946253816,0.0
3.69,0.12909738958934358,0.07660807353779747,9.840338041286385,0.0054285337165251735,0.0023750982670396243,0.014967417076629469,0.21231376929679024,0.29862020242817033,0.0,0.17007185554512194,0.1577003571629592,0.0,0.08876583387478398,0.03828104544536617,0.0
3.7,0.10431256834958288,0.04698197258879328,9.775846503737945,-0.001794511358104792,-0.010715920133949383,0.03289149994688513,0.21401892954434842,0.30019911946033706,0.0,0.1709605338878528,0.1580829900609904,0.0,0.0889697866827631,0.038245519812142414,0.0
3.71,0.14404226894182087,0.09182101559779095,9.79014035654233,-0.005372546416646458,0.007211016262568432,0.014478186263235833,0.21573298676817299,0.3017818610437679,0.0,0.1718512503179036,0.15846526727236068,0.0,0.08917345122871119,0.03820990812651522,0.0
3.72,0.1300806463297511,0.014661051333835266,9.83402942384816,-0.0022447994540043983,-0.004188324995218003,0.01679684124085264,0.21745596133471246,0.3033684236172949,0.0,0.1727440019493539,0.15884718793694644,0.0,0.08937682685275532,0.038174210468610865,0.0
3.73,0.12983451490266049,0.031926861035876136,9.799118764031682,-5.934765338999394e-05,0.0015681250368208258,0.0107249346607412,0.21918787358152336,0.304958803611153,0.0,0.17363878588968912,0.15922875119542632,0.0,0.08957991289595864,0.03813842691874906,0.0
3.74,0.12140620374004532,0.008282249244288633,9.790148280296329,-0.003140794420025106,0.0009050238058359947,0.02068801696455162,0.22092874381720629,0.30655299744698805,0.0,0.17453559923981016,0.15960995618928325,0.0,0.08978270870032252,0.03810255755744277,0.0
3.75,0.17481480661917131,0.03236563752482893,9.845201582886205,-0.005005712122354257,0.00023663809534924942,0.013544224831531055,0.22267859232133436,0.3081510015378641,0.0,0.17543443909404247,0.15999080206080604,0.0,0.08998521360878876,0.03806660246539806,0.0
3.7600000000000002,0.09903257629926032,-0.025192339195015262,9.846431352697756,0.0020841884621037978,-0.005530203421925186,0.022663869875293067,0.22443743934439375,0.3097528122882731,0.0,0.17633530254014584,0.16037128795309172,0.0,0.09018742696524165,0.03803056172351385,0.0
3.77,0.04528367935251462,0.04854307211253206,9.83966213577623,-0.005026985830986262,-0.00969346631917397,0.009155144900452663,0.22620530510771486,0.3113584260941413,0.0,0.1772381866593233,0.16075141301004714,0.0,0.09038934811451003,0.03799443541288182,0.0
3.7800000000000002,0.15371860724788383,0.03766244611955627,9.843461290218208,-0.007667459740592653,-0.005011894532981863,0.017514115324939416,0.227982209803407,0.31296783934283856,0.0,0.17814308852623117,0.16113117637639113,0.0,0.09059097640236961,0.03795822361478613,0.0
3.79,0.09206132824684014,0.02619528653672576,9.811052621631857,-0.005610430569487979,0.0041311921862216975,0.008918533010607748,0.22976817359429225,0.31458104841318546,0.0,0.17905000520898834,0.16151057719765624,0.0,0.09079231117554491,0.03792192641070333,0.0
3.8000000000000003,0.10922976511200241,0.01617461414431215,9.811862210760902,-0.0011717774413162415,-0.007233109312820872,0.015720105138559003,0.2315632166138455,0.3161980496754626,0.0,0.17995893376918534,0.16188961462019077,0.0,0.09099335178171142,0.03788554388230209,0.0
3.81,0.14548061811531354,0.0010064564904001191,9.798557561643992,-0.004954595538822616,-0.004401404850040021,0.016761579524599415,0.23336735896611893,0.3178188394914174,0.0,0.1808698712618945,0.1622682877911607,0.0,0.09119409756949774,0.03784907611144311,0.0
3.8200000000000003,0.05832676165671996,0.04964391054116167,9.823031875031479,-0.00114044951659255,0.002090233268997835,0.015227296533430273,0.23518062072568746,0.3194434142142737,0.0,0.18178281473567914,0.1626465958585516,0.0,0.09139454788848772,0.03781252318017884,0.0
3.83,0.06904528566603832,-0.007356814400348827,9.802163050180225,0.0030022215263960502,-0.005137123374338491,0.015746018601162568,0.23700302193757672,0.3210717701887391,0.0,0.18269776123260328,0.1630245379711704,0.0,0.0915947020892225,0.03777588517075337,0.0
3.84,0.05875622140963702,0.043096039527079494,9.80500801382219,0.002872215234316754,-0.0027152409487378655,0.023127423128194113,0.2388345826172027,0.3227039037510131,0.0,0.18361470778824096,0.16340211327864754,0.0,0.09179455952320263,0.037739162165602205,0.0
3.85,0.08317003084212748,0.0899358960916358,9.835997013019487,-0.0033041295454465554,0.0004091075803504632,0.02916817078129999,0.240675322750302,0.3243398112287963,0.0,0.18453365143168626,0.16377932093143877,0.0,0.0919941195428902,0.037702354247352084,0.0
3.86,0.12038247968222075,0.07223110615814976,9.85353617736543,-0.006519707935194748,0.0014132136956507906,0.02001658794059378,0.24252526229287197,0.32597948894129725,0.0,0.18545458918556249,0.16415616008082698,0.0,0.09219338150171094,0.03766546149882081,0.0
3.87,0.1231179800384394,-0.017525354277102535,9.829947807628102,-0.002878117325746037,-0.00523612974089237,0.014043821841576964,0.24438442117110215,0.32762293319924174,0.0,0.1863775180660321,0.16453262987892425,0.0,0.09239234475405628,0.03762848400301706,0.0
3.88,0.11587923403514203,0.011489280032841089,9.871829475957277,0.0032782240489177515,0.0007047145829058863,0.01868824976085724,0.24625281928131448,0.329270140304881,0.0,0.18730243508280636,0.16490872947867372,0.0,0.09259100865528541,0.037591421843140176,0.0
3.89,0.06540639604495653,0.04019779731924013,9.796834532839018,0.0044459811452228415,0.0019942737643185117,0.016620174190910057,0.24813047648989084,0.3309211065519999,0.0,0.18822933723915514,0.16528445803385142,0.0,0.09278937256172752,0.03755427510258,0.0
3.9,0.038684332731704366,0.025408586204486185,9.762860760823722,0.0017644496051667652,-0.006366002620160265,0.02286197627771216,0.2500174126332193,0.3325758282259248,0.0,0.18915822153191586,0.16565981469906826,0.0,0.09298743583068368,0.037517043864916694,0.0
3.91,0.10981580538214057,-0.014502443334552126,9.839438836687686,0.006007180254977102,0.0010742148802791419,0.019877644287374718,0.25191364751762,0.33423430160353296,0.0,0.19008908495150464,0.16603479862977197,0.0,0.09318519782042911,0.03747972821392051,0.0
3.92,0.09422937688106506,0.039001806777756394,9.794844993420599,0.008646010598096865,-0.0035829161487233446,0.010572523666150498,0.2538192009192861,0.33589652295325934,0.0,0.19102192448192457,0.16640940898224874,0.0,0.09338265789021513,0.03744232823355166,0.0
3.93,0.1223613885517696,0.027104337154471102,9.80978923274674,-0.00241613964064764,0.0006195759034303791,0.023974169945505417,0.2557340925842202,0.3375624885351074,0.0,0.1919567371007764,0.16678364491362557,0.0,0.09357981540027126,0.037404844007960084,0.0
3.94,0.12983527849844545,0.08479703787959872,9.764906104696365,0.007432816269932451,0.003615395015035722,0.023341522944503427,0.25765834222816775,0.3392321946006547,0.0,0.1928935197792681,0.16715750558187165,0.0,0.09377666971180736,0.03736727562148527,0.0
3.95,0.11312046314877608,0.019732762080132665,9.791023692579625,-0.0013027476039587185,-0.000881295103086677,0.026005124938696438,0.2595919695365545,0.3409056373930637,0.0,0.19383226948222465,0.16753099014580075,0.0,0.09397322018701562,0.03732962315865607,0.0
3.96,0.1319734587503483,0.06233198826398823,9.772933177502622,0.00509924348630032,0.00456707707989528,0.015970271321103437,0.26153499416442294,0.3425828131470885,0.0,0.19477298316809782,0.16790409776507262,0.0,0.09416946618907268,0.03729188670419051,0.0
3.97,0.11624174830559375,-0.010758585750903674,9.80497090209739,0.003542862343363811,0.0039540699212017565,0.020079672142076344,0.263487435736367,0.3442637180890846,0.0,0.19571565778897604,0.16827682760019544,0.0,0.0943654070821417,0.03725406634299559,0.0
3.98,0.1254629833994183,-0.003624116776728116,9.806163455183512,-0.009885292096263123,0.004539150476297468,0.012673080141007997,0.2654493138464722,0.3459483484370163,0.0,0.1966602902905944,0.16864917881252708,0.0,0.09456104223137429,0.037216162160167134,0.0
3.99,0.08861617311681633,0.04882803303527421,9.820698812346446,-0.004831135674633951,0.0020155496992566605,0.018362732363050797,0.2674206480582466,0.34763670040046635,0.0,0.19760687761234444,0.16902115056427758,0.0,0.0947563710029128,0.03717817424098951,0.0
4.0,0.10456305034894837,0.059652026089156755,9.855191688930654,-0.00610643958155179,0.00550383445219703,0.020625708407339755,0.2694014579045638,0.34932877018064334,0.0,0.19855541668728396,0.1693927420185106,0.0,0.09495139276389213,0.037140102670935524,0.0
4.01,0.11604938978215068,-0.001619834246565574,9.838307187946935,-0.008910235158129439,0.0019254765176512244,0.015482160411736823,0.2713917628875939,0.3510245539703911,0.0,0.19950590444214733,0.1697639523391455,0.0,0.09514610688244196,0.037101947535666195,0.0
4.0200000000000005,0.1349563669902113,0.02778603111554792,9.769334910913685,0.00439657491697828,-0.008336301831716462,0.020395628763081264,0.27339158247874273,0.3527240479541969,0.0,0.20045833779735506,0.1701347806909594,0.0,0.09534051272768874,0.03706370892103057,0.0
4.03,0.09872237450302054,-0.014421988292806831,9.836240463068386,0.01034385927560033,-0.003960353283798713,0.019545250758719993,0.2754009361185892,0.3544272483081996,0.0,0.20141271366702382,0.1705052262395884,0.0,0.0955346096697577,0.037025386913065506,0.0
4.04,0.1263634147517383,0.021550386808831125,9.821352640923243,-0.0012883625234952662,-0.0010562853330047743,0.016477221089573734,0.277419843216824,0.35613415120019964,0.0,0.20236902895897657,0.1708752881515303,0.0,0.0957283970797749,0.03698698159799551,0.0
4.05,0.10294671057240792,0.0520561766309563,9.815065207038916,0.004270783326831896,-0.0004361152469144404,0.025734744950941493,0.27944832315218227,0.35784475278966554,0.0,0.20332728057475277,0.17124496559414593,0.0,0.09592187432986929,0.036948493062232524,0.0
4.0600000000000005,0.10758877577333087,0.013861166418291382,9.817319014101884,0.007423126588453721,0.0017886937962293247,0.017595989896226114,0.28148639527238384,0.3595590492277454,0.0,0.20428746540961804,0.17161425773566127,0.0,0.09611504079317477,0.03690992139237573,0.0
4.07,0.13619346710455435,0.019400225496897287,9.824136572842587,0.0010416585009137985,-0.004034759375800138,0.01945309427255952,0.283534078894069,0.3612770366572722,0.0,0.20524958035257407,0.1719831637451691,0.0,0.09630789584383216,0.03687126667521137,0.0
4.08,0.051708627725366586,-0.007061332951168994,9.797243396269593,-0.0001265653245751988,0.010043543522747101,0.011474812210918282,0.2855913933027385,0.36299871121277505,0.0,0.20621362228636944,0.17235168279263105,0.0,0.09650043885699126,0.03683252899771256,0.0
4.09,0.07279849936657007,0.007342956038291267,9.81252947427426,-0.0012284396387104615,-0.0005122915473915748,0.021425592341348332,0.28765835775268833,0.36472406902048715,0.0,0.20717958808750928,0.1727198140488794,0.0,0.09669266920881289,0.03679370844703904,0.0
4.1,0.06741902435318625,0.07949813259696717,9.853518173716754,0.0026877944110248685,-3.843898028918834e-05,0.01646530749658632,0.2897349914669478,0.36645310619835425,0.0,0.208147474626265,0.173087556685619,0.0,0.09688458627647087,0.036754805110537025,0.0
4.11,0.04206770584270493,0.028903565827253015,9.796882826467234,0.004373470250162903,-0.0033537455356718727,0.023655800295627524,0.29182131363721986,0.3681858188560432,0.0,0.2091172787666853,0.17345490987542914,0.0,0.09707618943815408,0.03671581907573903,0.0
4.12,0.09191954486841311,-0.0033924825691543474,9.787103360714747,0.002309024530195903,-0.005016883800899676,0.012333813852623044,0.29391734342381426,0.36992220309495116,0.0,0.2100889973666055,0.1738218727917652,0.0,0.09726747807306842,0.0366767504303636,0.0
4.13,0.1349414685532711,0.01719444076477542,9.816148779563784,0.0021373153790843345,-0.0006315158528441378,0.021062659361509053,0.2960230999555895,0.3716622550082145,0.0,0.2110626272776581,0.1741884446089608,0.0,0.0974584515614389,0.03663759926231517,0.0
4.14,0.10410258729303432,-0.021324462975313,9.784083006297308,-0.00025601450603977453,0.0001377536209474406,0.008018353041299562,0.29813860232988976,0.3734059706807171,0.0,0.21203816534528308,0.1745546245022295,0.0,0.09764910928451155,0.036598365659683864,0.0
4.15,0.11877315308281113,-0.003865741053461113,9.76631650635637,-0.007964772625363882,-0.0004345204824767378,0.0220272635284991,0.3002638696124822,0.3751533461890997,0.0,0.21301560840873812,0.1749204116476668,0.0,0.09783945062455557,0.03655904971074526,0.0
4.16,0.14570599986618893,0.06732984367535383,9.807665984687755,0.004488581943782984,0.00827577971518727,0.018093028337793825,0.30239892083749487,0.37690437760176754,0.0,0.2139949533011083,0.17528580522225162,0.0,0.09802947496486517,0.03651965150396023,0.0
4.17,0.15304976565779235,0.022205698396376573,9.861458656536918,-0.0064231255980742395,-0.0006315467568891576,0.020982756889200593,0.3045437750073581,0.3786590609789011,0.0,0.21497619684931726,0.1756508044038486,0.0,0.0982191816897616,0.03648017112797473,0.0
4.18,0.11133443214281111,0.08316251395465574,9.816841877123693,0.0030969282104291074,-0.00042964637218851373,0.01600395367334355,0.3066984510927373,0.38041739237246364,0.0,0.21595933587413657,0.1760154083712098,0.0,0.0984085701845953,0.036440608671619565,0.0
4.19,0.15420521652282962,0.023540529069028593,9.823357312833446,0.003778683249964772,0.004076477392387692,0.014276876663152822,0.30886296803247815,0.38217936782621,0.0,0.21694436719019683,0.1763796163039765,0.0,0.09859763983574771,0.03640096422391027,0.0
4.2,0.11655018978365654,0.025281876988301952,9.754095549255466,-0.005702160522453632,-0.0008553291446460049,0.016869291258361823,0.3110373447335415,0.38394498337569627,0.0,0.21793128760599725,0.17674342738268084,0.0,0.09878639003063326,0.03636123787404683,0.0
4.21,0.08885287344287768,0.04554825446767722,9.831143764773229,-0.003039003953025773,0.0026966953436543366,0.020020130091899086,0.31322160007094,0.38571423504828806,0.0,0.21892009392391654,0.17710684078874814,0.0,0.09897482015770154,0.03632142971141352,0.0
4.22,0.09633091904047705,-0.053896087641003364,9.820800975839294,0.010607372756948723,-0.006395223691716808,0.021961015217437378,0.3154157528876813,0.3874871188631699,0.0,0.2199107829402233,0.17746985570449839,0.0,0.0991629296064391,0.036281539825578676,0.0
4.23,0.06993462239042102,0.03238974801590177,9.798052555158819,-0.00039741118934690775,-0.006355722605496606,0.020615300078114428,0.3176198219947066,0.3892636308313544,0.0,0.22090335144508597,0.17783247131314825,0.0,0.0993507177673715,0.036241568306294526,0.0
4.24,0.08789416842005567,0.02473192060166843,9.823401514142072,-0.006101068377172594,0.0006102928222779319,0.014430026142175104,0.319833826170826,0.39104376695568965,0.0,0.2218977962225832,0.1781946867988126,0.0,0.09953818403206524,0.03620151524349698,0.0
4.25,0.1039848271508969,0.07074254753275983,9.823103648514738,0.004004396198565204,-0.0011580879278592516,0.028319803390466514,0.3220577841626615,0.39282752323087045,0.0,0.222894114050715,0.17855650134650683,0.0,0.09972532779312977,0.03616138072730541,0.0
4.26,0.13901969902557754,0.05506154667293098,9.786215362149262,-0.0038633760278659053,-0.0040451239078152625,0.02081288064902083,0.3242917146845832,0.3946148956434461,0.0,0.22389230170141242,0.17891791414214833,0.0,0.0999121484442195,0.03612116484802246,0.0
4.2700000000000005,0.16672174031501522,-0.007929882870270182,9.827955611803397,-0.009602620112270479,0.0006092586701249124,0.016054219385990606,0.32653563641865135,0.3964058801718293,0.0,0.22489235594054843,0.17927892437255857,0.0,0.1000986453800357,0.03608086769613384,0.0
4.28,0.07381937253501719,0.06330464792113553,9.853914062675814,0.0025988477402323347,0.0010455004708748927,0.021304202104888346,0.32878956801455583,0.39820047278630555,0.0,0.22589427352794794,0.17963953122546458,0.0,0.1002848179963284,0.03604048936230812,0.0
4.29,0.1272554897376961,0.018130594169966686,9.811161755735794,-0.0045830890789156425,-0.0035494843858575797,0.020479923976493866,0.33105352808955146,0.3999986694490423,0.0,0.22689805121739914,0.17999973388950108,0.0,0.10047066568989853,0.036000029937396545,0.0
4.3,0.08443986968387368,-0.0011741072764485522,9.791972173926887,0.001605941711112191,-0.0025939791220213095,0.018340035103431813,0.3333275352284035,0.4018004661140977,0.0,0.2279036857566629,0.18035953155421228,0.0,0.10065618785859971,0.0359594895124328,0.0
4.3100000000000005,0.13008229655523637,0.031831965704768886,9.812672597905948,-0.004063450190511821,0.0010830827472144559,0.017769298788935805,0.3356116079833238,0.40360585872743027,0.0,0.22891117388748441,0.1807189234100536,0.0,0.10084138390134031,0.035918868178632817,0.0
4.32,0.11209365369745347,0.019795085357480043,9.843638395851933,0.0035360209713484235,-0.005105392256598146,0.02417396583371535,0.33790576487391144,0.40541484322690713,0.0,0.229920512345603,0.1810779086483935,0.0,0.10102625321808527,0.03587816602739459,0.0
4.33,0.06128362043443227,0.07199134257115364,9.781210434821082,0.0009174916230296783,-0.003020164337208405,0.027905042254395898,0.3402100243870936,0.4072274155423139,0.0,0.23093169786076279,0.18143648646151528,0.0,0.10121079520985818,0.035837383150297934,0.0
4.34,0.14424391902579767,0.036015180493840615,9.835356747763525,-0.012946042944794905,0.002669675702793332,0.009101806276260302,0.3425244049770635,0.40904357159536375,0.0,0.23194472715672365,0.18179465604261907,0.0,0.10139500927874313,0.03579651963910432,0.0
4.3500000000000005,0.09842887344362482,0.031925343212336775,9.797659566244386,0.0019100627035229401,-0.00011918014996173622,0.025450350470619366,0.3448489250652238,0.41086330729970655,0.0,0.23295959695127177,0.18215241658582354,0.0,0.10157889482788675,0.0357555755857566,0.0
4.36,0.10074544411029335,0.052733963568042094,9.825261892441391,-0.0014486566421519507,-0.002386014219779397,0.019412994007477275,0.3471836030401243,0.41268661856093747,0.0,0.23397630395622962,0.18250976728616744,0.0,0.10176245126149998,0.035714551082378906,0.0
4.37,0.08485310564616944,0.05845959476405771,9.801070061748632,0.007083588210954026,-0.0045153465949102755,0.020512299089335245,0.34952845725740334,0.4145135012766068,0.0,0.23499484487746738,0.18286670733961197,0.0,0.10194567798486014,0.03567344622127635,0.0
4.38,0.09750007610368613,0.04914041392385382,9.800989491347552,0.001976039245079257,-0.005066056758861991,0.02610238404088068,0.35188350603972784,0.41634395133622926,0.0,0.23601521641491363,0.18322323594304213,0.0,0.1021285744043128,0.03563226109493484,0.0
4.39,0.13014785314812125,0.0681748999804695,9.863692847487052,0.003780789218765076,-0.0006587774073523386,0.006085279852182919,0.3542487676767361,0.41817796462129353,0.0,0.23703741526256517,0.18357935229426875,0.0,0.10231113992727374,0.035590995796020895,0.0
4.4,0.11181604373413866,0.043810122804795085,9.775727402283994,-0.003552704005104625,0.010129062616182486,0.02344824904863718,0.3566242604249745,0.42001553700526983,0.0,0.238061438108499,0.18393505559203013,0.0,0.10249337396223082,0.03554965041738143,0.0
4.41,0.12753513598722035,0.030537768993844572,9.832560985326365,-0.003950338754089817,0.002828933212039485,0.02580159063150715,0.359010002507842,0.42185666435362124,0.0,0.2390872816348816,0.18429034503599404,0.0,0.10267527591874592,0.03550822505204352,0.0
4.42,0.1287145008253222,0.0626418816558551,9.869939732327639,-0.00012824665530282556,-0.006664321214473763,0.01596065043823701,0.3614060121155278,0.4237013425238121,0.0,0.24011494251798107,0.18464521982675933,0.0,0.10285684520745689,0.035466719793214224,0.0
4.43,0.15765793090592434,0.02269825053181619,9.838565657794184,-0.0018030806339692468,0.003536080836994782,0.012448423161396245,0.3638123074049586,0.42554956736531757,0.0,0.2411444174281769,0.18499967916585794,0.0,0.10303808124007932,0.035425134734280356,0.0
4.44,0.10793539890347732,0.026380865459148122,9.778067089428824,0.006690045261050408,-0.0037944330394880516,0.02763211182917836,0.3662289064997313,0.42740133471963193,0.0,0.2421757030299716,0.1853537222557565,0.0,0.1032189834294087,0.03538346996880828,0.0
4.45,0.07409381668395013,0.07698903310945113,9.779552584732537,-0.0007665952936166376,-2.428688303315925e-05,0.010664613598802308,0.36865582749005954,0.42925664042028,0.0,0.2432087959820004,0.18570734829985813,0.0,0.10339955118932208,0.0353417255905437,0.0
4.46,0.1505964564319395,0.07395762553206839,9.795451238700608,-0.0061241087499186424,-0.0029443030224188295,0.021553750765224547,0.37109308843271505,0.4311154802928241,0.0,0.24424369293704304,0.1860605565025044,0.0,0.10357978393478001,0.035299901693411455,0.0
4.47,0.10881503591891098,0.025012724163815604,9.822737237345596,-0.004137904568443303,0.010113774064370007,0.024589797886412416,0.3735407073509682,0.432977850154876,0.0,0.24528039054203435,0.1864133460689771,0.0,0.10375968108182862,0.03525799837151529,0.0
4.48,0.15237701538492263,0.011609468399969158,9.824778280822672,0.004825255423070023,-0.0056705395585745656,0.021470830278659522,0.375998702234527,0.43484374581610385,0.0,0.24631888543807526,0.18676571620549978,0.0,0.10393924204760133,0.03521601571913766,0.0
4.49,0.13061977964579483,0.06906915883699448,9.779849103371008,-0.0008362867213146344,0.0015680612806773045,0.022324401909949113,0.37846709103948406,0.43671316307824326,0.0,0.24735917426044285,0.18711766611923977,0.0,0.10411846625032072,0.03517395383073953,0.0
4.5,0.11536322720320016,0.04914436353841653,9.79181727624659,-0.0011035588397488064,-0.0034266190212562525,0.018189369133659834,0.38094589168825577,0.43858609773510615,0.0,0.24840125363860235,0.18746919501830991,0.0,0.10429735310930051,0.03513181280096011,0.0
4.51,0.12993917886633632,0.0345570303505376,9.7936555253906,0.005300937846088981,0.003694140396882937,0.021841123182423927,0.3834351220695216,0.44046254557259057,0.0,0.24944512019621767,0.18782030211177042,0.0,0.10447590204494749,0.03508959272461671,0.0
4.5200000000000005,0.17818448928255223,0.015391112391006148,9.812577595756553,-0.004573815944327709,0.0014672691003143649,0.01599805356267654,0.3859348000381715,0.44234250236868955,0.0,0.2504907705511618,0.1881709866096304,0.0,0.10465411247876326,0.035047293696704486,0.0
4.53,0.18214139970495868,0.03495581317383404,9.877540863718732,-0.011175881492136653,0.0062727632307601235,0.016658375229467778,0.38844494341524394,0.4442259638935011,0.0,0.2515382013155287,0.1885212477228498,0.0,0.1048319838333461,0.035004915812396224,0.0
4.54,0.12209094958637641,0.02431120537041108,9.790004388031296,-0.004264333231783211,0.003590588973279217,0.01974335129605108,0.3909655699878689,0.44611292590923735,0.0,0.2525874090956434,0.18887108466334143,0.0,0.10500951553239304,0.03496245916704216,0.0
